// Start Time: Unknown
// Update Rate: 40.0Hz
// Filter Profile: human (46.1)
// Firmware Version: 4.6.0
PacketCounter	SampleTimeFine	Acc_X	Acc_Y	Acc_Z	Gyr_X	Gyr_Y	Gyr_Z	Mag_X	Mag_Y	Mag_Z	Quat_q0	Quat_q1	Quat_q2	Quat_q3
12875		4.884591	1.055628	8.372194	0.002733	-0.005105	-0.000066	-0.628662	-0.255371	-0.359863	-0.249650	-0.265479	0.013057	-0.931142
12876		4.894247	1.059229	8.360933	0.003490	-0.006165	0.000784	-0.632324	-0.256592	-0.354980	-0.249629	-0.265561	0.013039	-0.931124
12877		4.890427	1.069868	8.368152	0.002199	-0.004738	0.000575	-0.633057	-0.263916	-0.359131	-0.249613	-0.265631	0.013029	-0.931109
12878		4.869804	1.067029	8.358038	0.002958	-0.005866	0.000726	-0.623047	-0.250488	-0.361572	-0.249594	-0.265709	0.013015	-0.931092
12879		4.894189	1.049280	8.370855	0.001892	-0.005133	0.002009	-0.641846	-0.251221	-0.357910	-0.249564	-0.265774	0.013014	-0.931082
12880		4.908609	1.044712	8.361297	0.005246	-0.004550	-0.001388	-0.634033	-0.257812	-0.365234	-0.249562	-0.265844	0.012962	-0.931063
12881		4.899731	1.062350	8.357324	0.004103	-0.005242	-0.000680	-0.625488	-0.258301	-0.364014	-0.249555	-0.265920	0.012930	-0.931043
12882		4.878733	1.059701	8.347412	0.002354	-0.001957	0.001027	-0.632080	-0.257812	-0.363037	-0.249534	-0.265955	0.012914	-0.931039
12883		4.894070	1.039341	8.371026	0.005016	-0.003587	-0.000079	-0.631592	-0.248291	-0.364990	-0.249517	-0.266017	0.012868	-0.931027
12884		4.894910	1.040643	8.370372	0.006615	-0.004620	-0.001302	-0.633789	-0.255615	-0.363281	-0.249507	-0.266095	0.012807	-0.931008
12885		4.899709	1.055205	8.366880	0.006684	-0.008026	0.000441	-0.634033	-0.251709	-0.358398	-0.249476	-0.266212	0.012764	-0.930983
12886		4.901241	1.054592	8.356257	0.004863	-0.006436	-0.001227	-0.625244	-0.256104	-0.360840	-0.249469	-0.266307	0.012734	-0.930958
12887		4.884377	1.065371	8.343389	0.005085	-0.006926	0.002366	-0.625732	-0.249023	-0.362305	-0.249424	-0.266405	0.012714	-0.930943
12888		4.895793	1.055200	8.374356	0.004477	-0.008051	0.001733	-0.627441	-0.253906	-0.354492	-0.249384	-0.266512	0.012705	-0.930923
12889		4.885843	1.034429	8.357432	0.006301	-0.009844	0.001303	-0.634033	-0.257324	-0.358643	-0.249345	-0.266652	0.012675	-0.930894
12890		4.891633	1.052634	8.372503	0.006985	-0.012531	-0.000519	-0.631104	-0.257080	-0.359131	-0.249323	-0.266821	0.012646	-0.930852
12891		4.911012	1.059953	8.349840	0.006225	-0.011268	0.000731	-0.626221	-0.257324	-0.358398	-0.249291	-0.266965	0.012626	-0.930819
12892		4.918078	1.054729	8.359642	0.006075	-0.009016	0.001213	-0.624268	-0.256836	-0.359375	-0.249260	-0.267081	0.012599	-0.930794
12893		4.911414	1.050964	8.359408	0.004784	-0.007725	-0.000397	-0.631836	-0.254150	-0.365234	-0.249255	-0.267175	0.012579	-0.930769
12894		4.914356	1.030562	8.362609	0.004025	-0.006598	-0.000548	-0.634277	-0.252930	-0.356445	-0.249238	-0.267245	0.012580	-0.930753
12895		4.927475	1.047881	8.348654	0.006309	-0.005217	-0.001966	-0.632812	-0.258545	-0.358398	-0.249220	-0.267333	0.012550	-0.930734
12896		4.901626	1.055964	8.346608	0.003649	-0.003654	-0.001560	-0.633057	-0.258057	-0.362061	-0.249223	-0.267389	0.012539	-0.930717
12897		4.910956	1.063377	8.354621	0.001897	-0.005334	-0.000082	-0.631592	-0.260742	-0.362549	-0.249214	-0.267445	0.012563	-0.930703
12898		4.900063	1.049834	8.376621	0.003039	-0.004780	-0.002192	-0.633301	-0.255127	-0.358643	-0.249239	-0.267494	0.012554	-0.930682
12899		4.922944	1.050278	8.366023	0.002962	-0.006136	-0.002064	-0.632324	-0.253662	-0.355713	-0.249238	-0.267570	0.012563	-0.930660
12900		4.927223	1.064271	8.362864	0.003194	-0.001998	-0.001746	-0.629395	-0.254883	-0.356201	-0.249228	-0.267609	0.012558	-0.930652
12901		4.912244	1.032144	8.359052	0.002357	-0.002296	-0.002471	-0.627441	-0.253174	-0.358643	-0.249245	-0.267642	0.012554	-0.930638
12902		4.915961	1.048129	8.365788	0.003271	-0.000846	-0.003974	-0.629639	-0.251221	-0.356689	-0.249274	-0.267640	0.012541	-0.930631
12903		4.907538	1.040613	8.347445	0.003044	0.000050	-0.003367	-0.630615	-0.254883	-0.358398	-0.249276	-0.267642	0.012539	-0.930630
12904		4.915601	1.046375	8.346590	0.002361	0.002670	-0.002247	-0.626709	-0.257324	-0.356934	-0.249284	-0.267603	0.012530	-0.930639
12905		4.910001	1.055481	8.345237	0.001829	0.002764	-0.004406	-0.627686	-0.259277	-0.366455	-0.249352	-0.267563	0.012502	-0.930633
12906		4.917615	1.063396	8.354189	0.003808	0.003684	-0.005091	-0.633301	-0.254150	-0.359131	-0.249438	-0.267453	0.012453	-0.930642
12907		4.904850	1.044913	8.348487	0.002971	0.003386	-0.005815	-0.630859	-0.245850	-0.360596	-0.249460	-0.267418	0.012432	-0.930646
12908		4.915829	1.069934	8.374039	0.003808	0.003684	-0.005090	-0.630127	-0.264404	-0.355957	-0.249415	-0.267354	0.012445	-0.930677
12909		4.889856	1.052897	8.357993	0.002894	0.002098	-0.004986	-0.633057	-0.263184	-0.370605	-0.249529	-0.267359	0.012361	-0.930646
12910		4.907651	1.040574	8.350895	0.003426	0.001867	-0.004227	-0.629639	-0.252686	-0.357666	-0.249617	-0.267246	0.012315	-0.930655
12911		4.885480	1.046188	8.379930	0.004719	0.000374	-0.004715	-0.631836	-0.252686	-0.367920	-0.249616	-0.267251	0.012287	-0.930654
12912		4.900494	1.076881	8.364234	0.004795	0.001868	-0.003443	-0.634521	-0.258301	-0.359619	-0.249595	-0.267144	0.012284	-0.930691
12913		4.893407	1.050103	8.359763	0.003806	-0.001145	-0.003911	-0.629150	-0.254395	-0.365479	-0.249610	-0.267171	0.012250	-0.930680
12914		4.893662	1.049732	8.349850	0.006772	-0.002040	-0.002949	-0.634033	-0.257812	-0.355469	-0.249610	-0.267124	0.012216	-0.930693
12915		4.894200	1.047608	8.330179	0.005859	-0.003627	-0.002845	-0.625244	-0.265381	-0.361084	-0.249594	-0.267231	0.012162	-0.930668
12916		4.916550	1.056244	8.358113	0.005630	-0.002662	-0.001540	-0.629639	-0.249756	-0.356445	-0.249740	-0.267225	0.012055	-0.930632
12917		4.921924	1.049244	8.359352	0.004033	-0.001835	-0.002417	-0.630371	-0.255127	-0.359375	-0.249655	-0.267264	0.012076	-0.930643
12918		4.895421	1.057324	8.357674	0.005174	-0.001144	-0.003126	-0.627930	-0.259766	-0.363037	-0.249643	-0.267273	0.012048	-0.930644
12919		4.892252	1.047293	8.369531	0.003728	-0.002227	-0.000983	-0.639160	-0.256592	-0.366455	-0.249704	-0.267235	0.012014	-0.930639
12920		4.901035	1.049274	8.349095	0.003500	-0.001468	-0.001776	-0.633057	-0.254883	-0.355225	-0.249627	-0.267205	0.012036	-0.930668
12921		4.898045	1.037238	8.351291	0.004489	-0.003490	-0.002228	-0.633057	-0.260986	-0.368896	-0.249565	-0.267311	0.012025	-0.930654
12922		4.897140	1.058028	8.336948	0.005630	-0.002730	-0.002238	-0.632812	-0.258789	-0.362305	-0.249614	-0.267233	0.011982	-0.930664
12923		4.911000	1.059724	8.356332	0.004261	-0.002594	-0.001622	-0.629150	-0.250488	-0.362061	-0.249616	-0.267236	0.011959	-0.930663
12924		4.911355	1.058783	8.346427	0.002968	-0.001170	-0.001836	-0.631348	-0.257812	-0.360352	-0.249536	-0.267182	0.012012	-0.930700
12925		4.902980	1.058905	8.366366	0.004414	-0.000157	-0.004678	-0.631836	-0.259033	-0.361572	-0.249571	-0.267175	0.011968	-0.930692
12926		4.912886	1.045652	8.379077	0.003273	-0.000847	-0.003968	-0.629395	-0.251953	-0.357422	-0.249617	-0.267160	0.011935	-0.930685
12927		4.916316	1.056101	8.357185	0.003881	0.000349	-0.002639	-0.637207	-0.254639	-0.359131	-0.249544	-0.267164	0.011949	-0.930703
12928		4.897799	1.070989	8.364357	0.004718	0.000373	-0.004712	-0.625977	-0.253662	-0.369385	-0.249445	-0.267209	0.011943	-0.930717
12929		4.897450	1.070560	8.354800	0.003425	0.001727	-0.005625	-0.633789	-0.252441	-0.353271	-0.249525	-0.266981	0.011962	-0.930761
12930		4.888471	1.066862	8.355948	0.002359	0.002531	-0.003647	-0.629883	-0.258057	-0.359619	-0.249395	-0.267064	0.011974	-0.930772
12931		4.906406	1.058097	8.367976	0.002512	0.000347	-0.003422	-0.632324	-0.253906	-0.360107	-0.249441	-0.267048	0.011945	-0.930764
12932		4.889422	1.051395	8.379432	0.003882	0.000211	-0.004037	-0.629639	-0.255371	-0.355225	-0.249380	-0.267040	0.011952	-0.930783
12933		4.889205	1.054651	8.388960	0.004186	0.000740	-0.004071	-0.628662	-0.253418	-0.361328	-0.249363	-0.267091	0.011914	-0.930773
12934		4.883787	1.060391	8.368262	0.003196	0.002624	-0.005020	-0.621826	-0.253662	-0.361084	-0.249366	-0.266996	0.011923	-0.930799
12935		4.884960	1.034445	8.343894	0.003045	0.000049	-0.003362	-0.624756	-0.263672	-0.358398	-0.249457	-0.266877	0.011928	-0.930809
12936		4.896720	1.057593	8.359326	0.004948	-0.000454	-0.004615	-0.625488	-0.255371	-0.361084	-0.249695	-0.266870	0.011793	-0.930749
12937		4.891605	1.067320	8.357565	0.004186	0.000741	-0.004070	-0.616943	-0.257324	-0.355469	-0.249746	-0.266784	0.011771	-0.930760
12938		4.884496	1.042373	8.362793	0.003349	0.000509	-0.004095	-0.630615	-0.260986	-0.361816	-0.249952	-0.266730	0.011701	-0.930721
12939		4.896376	1.061484	8.359035	0.002667	-0.001906	-0.003895	-0.625977	-0.256836	-0.362793	-0.250048	-0.266718	0.011660	-0.930699
12940		4.893156	1.045849	8.342235	0.004645	-0.001053	-0.005278	-0.634521	-0.260254	-0.355469	-0.250123	-0.266632	0.011628	-0.930704
12941		4.883198	1.069433	8.367455	0.003577	-0.000179	-0.002601	-0.625244	-0.253418	-0.358154	-0.250100	-0.266760	0.011577	-0.930674
12942		4.893007	1.052029	8.361164	0.002815	0.000946	-0.002756	-0.629150	-0.256592	-0.357666	-0.250061	-0.266714	0.011593	-0.930698
12943		4.892810	1.054940	8.370722	0.003045	0.000049	-0.003360	-0.628174	-0.255127	-0.370117	-0.250044	-0.266735	0.011579	-0.930697
12944		4.887905	1.062603	8.359281	0.005710	-0.001509	-0.003759	-0.631836	-0.264160	-0.367920	-0.250047	-0.266530	0.011594	-0.930755
12945		4.893165	1.057826	8.370151	0.004569	-0.002270	-0.003748	-0.622803	-0.251465	-0.364746	-0.250206	-0.266436	0.011521	-0.930740
12946		4.888557	1.063526	8.348970	0.004036	-0.001903	-0.003109	-0.625000	-0.260498	-0.368896	-0.250162	-0.266279	0.011568	-0.930796
12947		4.885448	1.051632	8.351268	0.004036	-0.001903	-0.003109	-0.628906	-0.256348	-0.362305	-0.250336	-0.266091	0.011533	-0.930803
12948		4.899050	1.055410	8.380360	0.004341	-0.001513	-0.004542	-0.637451	-0.251221	-0.368408	-0.250321	-0.266059	0.011522	-0.930816
12949		4.886085	1.054566	8.350526	0.006168	-0.003163	-0.003566	-0.631104	-0.258301	-0.361572	-0.250036	-0.266003	0.011593	-0.930908
12950		4.899667	1.054576	8.360485	0.003881	0.000351	-0.002636	-0.634033	-0.253418	-0.352783	-0.250019	-0.265990	0.011568	-0.930917
12951		4.886494	1.062953	8.378658	0.003962	-0.003259	-0.002977	-0.624268	-0.258545	-0.364014	-0.249786	-0.266206	0.011581	-0.930917
12952		4.888522	1.042728	8.382559	0.004036	-0.001763	-0.001710	-0.625244	-0.263428	-0.362305	-0.249904	-0.266100	0.011558	-0.930916
12953		4.883724	1.048237	8.361508	0.002742	-0.000690	-0.005420	-0.627441	-0.252197	-0.356201	-0.250161	-0.266036	0.011475	-0.930866
12954		4.877311	1.080576	8.364903	0.001296	-0.001562	-0.001181	-0.634033	-0.259277	-0.368408	-0.250006	-0.266089	0.011537	-0.930892
12955		4.887501	1.062756	8.358471	0.002437	-0.000870	-0.001891	-0.624512	-0.252441	-0.364746	-0.249985	-0.265981	0.011555	-0.930929
12956		4.892734	1.053348	8.350332	0.001830	-0.002069	-0.003217	-0.629639	-0.264160	-0.361816	-0.249957	-0.265849	0.011625	-0.930973
12957		4.884655	1.057121	8.389277	0.003200	-0.002134	-0.003132	-0.636719	-0.251953	-0.365479	-0.250121	-0.265865	0.011546	-0.930925
12958		4.896785	1.074191	8.375763	0.003503	-0.001465	-0.001770	-0.627197	-0.264893	-0.360352	-0.249844	-0.265837	0.011631	-0.931007
12959		4.890391	1.046728	8.371162	0.001223	-0.002988	-0.001748	-0.632568	-0.251953	-0.362305	-0.250048	-0.265863	0.011563	-0.930945
12960		4.877472	1.049114	8.360513	0.005406	-0.001967	-0.003021	-0.618896	-0.257568	-0.360352	-0.249841	-0.265868	0.011605	-0.930999
12961		4.864435	1.055848	8.369008	0.004570	-0.002270	-0.003745	-0.630371	-0.243408	-0.363525	-0.250028	-0.265796	0.011562	-0.930970
12962		4.878164	1.053828	8.369327	0.004037	-0.001902	-0.003106	-0.624023	-0.250488	-0.359863	-0.249641	-0.265730	0.011711	-0.931091
12963		4.925587	1.071304	8.365643	0.003963	-0.003329	-0.003673	-0.632080	-0.257080	-0.359863	-0.249558	-0.265710	0.011761	-0.931118
12964		4.892722	1.051052	8.359446	0.003357	-0.004458	-0.004300	-0.624512	-0.260010	-0.357910	-0.249494	-0.265798	0.011754	-0.931110
12965		4.888205	1.062429	8.366910	0.003807	-0.001075	-0.003202	-0.626465	-0.264648	-0.356201	-0.249633	-0.265818	0.011687	-0.931068
12966		4.885171	1.050587	8.369197	0.003964	-0.003399	-0.004371	-0.624268	-0.252441	-0.363770	-0.249848	-0.265928	0.011568	-0.930980
12967		4.899194	1.048767	8.369319	0.005867	-0.003690	-0.003526	-0.632324	-0.254883	-0.364746	-0.249813	-0.265847	0.011595	-0.931012
12968		4.889704	1.064837	8.355913	0.004037	-0.002113	-0.005201	-0.627930	-0.256348	-0.368896	-0.249719	-0.265810	0.011618	-0.931048
12969		4.898135	1.074881	8.373872	0.003346	0.000649	-0.002696	-0.621826	-0.265625	-0.362793	-0.249749	-0.265623	0.011644	-0.931093
12970		4.894537	1.058940	8.357388	0.003347	0.000578	-0.003394	-0.631592	-0.267090	-0.358398	-0.250107	-0.265525	0.011539	-0.931026
12971		4.897605	1.071195	8.345205	0.002583	0.001632	-0.004249	-0.631592	-0.259766	-0.367676	-0.250299	-0.265592	0.011421	-0.930957
12972		4.872237	1.059568	8.357724	0.003274	-0.000848	-0.003960	-0.624756	-0.253662	-0.360840	-0.250325	-0.265499	0.011412	-0.930977
12973		4.877682	1.054632	8.368538	0.004728	-0.004522	-0.004211	-0.627930	-0.254150	-0.355713	-0.250278	-0.265502	0.011428	-0.930988
12974		4.900163	1.059147	8.377258	0.001225	-0.002988	-0.001745	-0.632080	-0.255371	-0.365479	-0.250151	-0.265600	0.011472	-0.930994
12975		4.874031	1.068230	8.385022	0.002291	-0.003441	-0.000227	-0.629883	-0.257568	-0.362549	-0.250011	-0.265567	0.011534	-0.931040
12976		4.882941	1.067870	8.354944	0.002667	-0.001626	-0.001094	-0.622314	-0.255615	-0.357666	-0.249965	-0.265553	0.011546	-0.931056
12977		4.879916	1.055452	8.357319	0.002364	-0.002226	-0.001756	-0.636719	-0.259766	-0.360107	-0.249993	-0.265560	0.011556	-0.931047
12978		4.888673	1.059362	8.346416	0.004037	-0.001901	-0.003103	-0.627441	-0.262207	-0.366943	-0.249885	-0.265666	0.011523	-0.931046
12979		4.888896	1.068343	8.384406	0.003807	-0.001004	-0.002502	-0.623047	-0.253174	-0.363281	-0.250028	-0.265558	0.011479	-0.931039
12980		4.880917	1.058468	8.356353	0.003128	-0.003208	-0.000201	-0.625000	-0.259521	-0.355957	-0.249985	-0.265479	0.011534	-0.931072
12981		4.876630	1.069414	8.363724	0.002825	-0.003950	-0.002260	-0.629883	-0.262451	-0.361328	-0.250055	-0.265574	0.011500	-0.931027
12982		4.895530	1.056915	8.356093	0.003504	-0.001605	-0.003164	-0.624512	-0.260498	-0.365967	-0.250140	-0.265597	0.011443	-0.930998
12983		4.882624	1.064960	8.374165	0.002292	-0.003441	-0.000225	-0.624756	-0.258057	-0.363281	-0.250254	-0.265502	0.011444	-0.930994
12984		4.888284	1.055634	8.365787	0.003965	-0.003258	-0.002969	-0.631104	-0.260986	-0.360840	-0.250316	-0.265457	0.011433	-0.930991
12985		4.888771	1.054668	8.355809	0.003201	-0.001922	-0.001032	-0.636230	-0.251221	-0.364990	-0.250316	-0.265501	0.011406	-0.930979
12986		4.884223	1.061822	8.344178	0.003431	-0.002890	-0.002331	-0.619873	-0.261230	-0.362549	-0.250029	-0.265505	0.011490	-0.931053
12987		4.889910	1.056329	8.354932	0.001989	-0.004041	-0.000886	-0.628174	-0.255371	-0.356445	-0.250237	-0.265441	0.011473	-0.931016
12988		4.882483	1.054302	8.364834	0.005493	-0.005363	-0.001256	-0.626221	-0.259277	-0.361328	-0.250128	-0.265567	0.011466	-0.931009
12989		4.883643	1.057128	8.373617	0.001614	-0.005927	-0.000716	-0.635498	-0.248779	-0.359375	-0.250172	-0.265594	0.011483	-0.930990
12990		4.888120	1.064986	8.341492	0.003590	-0.004931	-0.000703	-0.633789	-0.257324	-0.351562	-0.249804	-0.265702	0.011579	-0.931057
12991		4.897359	1.074530	8.359028	0.003129	-0.003137	0.000499	-0.623291	-0.255127	-0.357666	-0.249615	-0.265920	0.011564	-0.931045
12992		4.896243	1.040975	8.365620	0.003964	-0.003258	-0.002968	-0.635742	-0.258545	-0.354980	-0.249638	-0.265941	0.011564	-0.931033
12993		4.906783	1.083352	8.366723	0.002969	-0.001238	-0.002526	-0.622559	-0.256348	-0.365234	-0.249496	-0.266092	0.011536	-0.931028
12994		4.905148	1.045756	8.354499	0.001903	-0.000573	-0.001949	-0.623047	-0.253906	-0.363281	-0.249599	-0.265943	0.011570	-0.931043
12995		4.883616	1.049035	8.373728	0.004570	-0.002127	-0.002343	-0.629883	-0.259277	-0.365723	-0.249621	-0.265855	0.011592	-0.931062
12996		4.892454	1.053094	8.362734	0.003431	-0.002890	-0.002330	-0.622803	-0.257324	-0.361084	-0.249649	-0.265805	0.011589	-0.931069
12997		4.896481	1.068752	8.369147	0.000086	-0.003681	-0.001030	-0.630127	-0.251221	-0.361572	-0.249732	-0.265767	0.011631	-0.931057
12998		4.880328	1.059422	8.370766	0.002898	-0.002523	-0.001693	-0.619873	-0.263184	-0.360840	-0.249551	-0.265763	0.011696	-0.931106
12999		4.902702	1.061680	8.369978	0.002293	-0.003440	-0.000222	-0.631836	-0.256836	-0.359619	-0.249803	-0.265724	0.011658	-0.931050
13000		4.886551	1.050697	8.361988	0.003431	-0.002962	-0.003028	-0.630127	-0.250977	-0.361084	-0.249722	-0.265786	0.011657	-0.931054
13001		4.905311	1.042204	8.373568	0.003806	-0.000933	-0.001803	-0.627930	-0.254639	-0.354736	-0.249534	-0.265774	0.011705	-0.931107
13002		4.895342	1.055722	8.350891	0.002737	-0.000554	-0.004019	-0.624512	-0.263916	-0.363037	-0.249464	-0.265845	0.011700	-0.931105
13003		4.868548	1.065270	8.359018	0.002204	-0.000186	-0.003382	-0.620117	-0.250732	-0.367676	-0.249693	-0.265772	0.011647	-0.931066
13004		4.900463	1.053381	8.371415	0.003503	-0.001534	-0.002464	-0.628906	-0.253906	-0.363770	-0.249712	-0.265583	0.011716	-0.931113
13005		4.895759	1.062634	8.369414	0.003200	-0.002135	-0.003125	-0.636230	-0.247070	-0.354492	-0.249635	-0.265543	0.011748	-0.931145
13006		4.884263	1.043807	8.363286	0.005176	-0.000996	-0.001717	-0.630371	-0.261230	-0.366699	-0.249207	-0.265682	0.011786	-0.931220
13007		4.901205	1.054958	8.360961	0.004338	-0.001443	-0.003835	-0.630859	-0.258545	-0.355225	-0.249294	-0.265619	0.011746	-0.931215
13008		4.887985	1.065193	8.388783	0.001902	-0.000573	-0.001948	-0.632812	-0.259766	-0.354004	-0.249229	-0.265712	0.011721	-0.931206
13009		4.893094	1.055879	8.380737	0.003806	-0.001004	-0.002500	-0.632812	-0.253662	-0.360107	-0.249145	-0.265850	0.011659	-0.931190
13010		4.893301	1.050841	8.351789	0.001831	-0.002001	-0.002511	-0.626221	-0.258057	-0.358154	-0.248993	-0.265884	0.011701	-0.931220
13011		4.890110	1.044486	8.383018	0.003041	0.000119	-0.002659	-0.633301	-0.264648	-0.357422	-0.249031	-0.265885	0.011675	-0.931210
13012		4.888592	1.066730	8.378411	0.003201	-0.001992	-0.001727	-0.628906	-0.263672	-0.358643	-0.249036	-0.265990	0.011592	-0.931180
13013		4.893949	1.055531	8.360639	0.003200	-0.002135	-0.003123	-0.620361	-0.259766	-0.357422	-0.249125	-0.266040	0.011520	-0.931143
13014		4.899308	1.052289	8.381148	0.003504	-0.001462	-0.001764	-0.625732	-0.256348	-0.356201	-0.249276	-0.266027	0.011484	-0.931106
13015		4.894669	1.057644	8.359951	0.004802	-0.002952	-0.002241	-0.631348	-0.254883	-0.362549	-0.249265	-0.266087	0.011463	-0.931093
13016		4.873330	1.057008	8.359944	0.002668	-0.001624	-0.001090	-0.630127	-0.255371	-0.355713	-0.249161	-0.266069	0.011502	-0.931125
13017		4.892091	1.046521	8.361969	0.004570	-0.002198	-0.003037	-0.627930	-0.256104	-0.366455	-0.249068	-0.266154	0.011485	-0.931126
13018		4.887492	1.057908	8.369449	0.003735	-0.002360	-0.002363	-0.625244	-0.255127	-0.354492	-0.249082	-0.266069	0.011511	-0.931146
13019		4.896208	1.059996	8.348928	0.004037	-0.001902	-0.003098	-0.624512	-0.258545	-0.360107	-0.249065	-0.266129	0.011497	-0.931133
13020		4.888129	1.060226	8.368784	0.004340	-0.001228	-0.001740	-0.627441	-0.257568	-0.363770	-0.249135	-0.266104	0.011473	-0.931122
13021		4.901797	1.056037	8.359577	0.003200	-0.002136	-0.003122	-0.621094	-0.258057	-0.353516	-0.249173	-0.266054	0.011479	-0.931126
13022		4.875465	1.065487	8.367447	0.002062	-0.002828	-0.002410	-0.634277	-0.256104	-0.356445	-0.249272	-0.266108	0.011468	-0.931085
13023		4.897798	1.070107	8.376183	0.004803	-0.002952	-0.002240	-0.637451	-0.254639	-0.359375	-0.249117	-0.266221	0.011451	-0.931094
13024		4.894832	1.055935	8.369004	0.002134	-0.001328	-0.001150	-0.630371	-0.257812	-0.360352	-0.248899	-0.266282	0.011484	-0.931134
13025		4.895213	1.058712	8.378254	0.002898	-0.002666	-0.003083	-0.631348	-0.258545	-0.366699	-0.248880	-0.266302	0.011481	-0.931134
13026		4.890722	1.064026	8.356961	0.004501	-0.003482	-0.002202	-0.634521	-0.259033	-0.362549	-0.248875	-0.266259	0.011480	-0.931148
13027		4.896417	1.057037	8.358114	0.004501	-0.003482	-0.002201	-0.629150	-0.254883	-0.356445	-0.248800	-0.266296	0.011460	-0.931157
13028		4.883659	1.061391	8.356948	0.003968	-0.003042	-0.000867	-0.621826	-0.250000	-0.359375	-0.248708	-0.266361	0.011467	-0.931163
13029		4.897482	1.061036	8.366809	0.002969	-0.001238	-0.002522	-0.628906	-0.260010	-0.352539	-0.248714	-0.266301	0.011531	-0.931178
13030		4.897682	1.060065	8.356989	0.003503	-0.001606	-0.003158	-0.621338	-0.258545	-0.351074	-0.248708	-0.266409	0.011473	-0.931149
13031		4.884783	1.068278	8.375068	0.003132	-0.003276	-0.000890	-0.622803	-0.254639	-0.360352	-0.248780	-0.266497	0.011446	-0.931105
13032		4.903735	1.055722	8.367426	0.003735	-0.002360	-0.002361	-0.632812	-0.255371	-0.358154	-0.248834	-0.266453	0.011468	-0.931103
13033		4.895880	1.051978	8.368024	0.003965	-0.003330	-0.003657	-0.629883	-0.260254	-0.364014	-0.248731	-0.266521	0.011466	-0.931111
13034		4.894740	1.074472	8.363102	0.004270	-0.002583	-0.001601	-0.624023	-0.262207	-0.356934	-0.248760	-0.266493	0.011445	-0.931112
13035		4.888359	1.047252	8.358728	0.003807	-0.000859	-0.001102	-0.621338	-0.256836	-0.361328	-0.248874	-0.266500	0.011393	-0.931080
13036		4.891805	1.063322	8.365366	0.002736	-0.000484	-0.003318	-0.636719	-0.256836	-0.364502	-0.248999	-0.266415	0.011403	-0.931071
13037		4.888571	1.053205	8.377505	0.003806	-0.000931	-0.001800	-0.629639	-0.251221	-0.367920	-0.248867	-0.266400	0.011409	-0.931110
13038		4.892195	1.067449	8.374440	0.003734	-0.002504	-0.003755	-0.624023	-0.249756	-0.361572	-0.248803	-0.266303	0.011470	-0.931154
13039		4.884151	1.059934	8.355978	0.005406	-0.002035	-0.003707	-0.633545	-0.260986	-0.356689	-0.248770	-0.266249	0.011503	-0.931178
13040		4.871276	1.062605	8.345269	0.004199	-0.004084	-0.002857	-0.629395	-0.260986	-0.361084	-0.248723	-0.266362	0.011453	-0.931159
13041		4.912312	1.061989	8.384874	0.004503	-0.003409	-0.001500	-0.627930	-0.245605	-0.358887	-0.248750	-0.266383	0.011419	-0.931146
13042		4.882655	1.052768	8.366739	0.005941	-0.002259	-0.002948	-0.631104	-0.262939	-0.364014	-0.248569	-0.266383	0.011470	-0.931194
13043		4.891465	1.055114	8.346095	0.003966	-0.003330	-0.003654	-0.625000	-0.250000	-0.363770	-0.248641	-0.266379	0.011428	-0.931176
13044		4.892056	1.064354	8.383889	0.003199	-0.002209	-0.003815	-0.629395	-0.259766	-0.358154	-0.248625	-0.266299	0.011492	-0.931203
13045		4.892401	1.059438	8.354827	0.004271	-0.002582	-0.001599	-0.633789	-0.256348	-0.366455	-0.248621	-0.266344	0.011458	-0.931191
13046		4.879490	1.065792	8.363328	0.003736	-0.002359	-0.002358	-0.625244	-0.259277	-0.352783	-0.248549	-0.266303	0.011474	-0.931222
13047		4.881725	1.043839	8.357755	0.005871	-0.003687	-0.003506	-0.632812	-0.255859	-0.354004	-0.248596	-0.266404	0.011409	-0.931181
13048		4.889080	1.071636	8.351602	0.005035	-0.003921	-0.003529	-0.623779	-0.263428	-0.364258	-0.248475	-0.266529	0.011377	-0.931178
13049		4.881269	1.069991	8.361754	0.004039	-0.001756	-0.001698	-0.633301	-0.253174	-0.354980	-0.248655	-0.266457	0.011345	-0.931151
13050		4.891845	1.058629	8.383906	0.003435	-0.002817	-0.001621	-0.626221	-0.252930	-0.367920	-0.248479	-0.266547	0.011357	-0.931172
13051		4.889106	1.046710	8.386193	0.005338	-0.003319	-0.002869	-0.637207	-0.261719	-0.364502	-0.248499	-0.266449	0.011394	-0.931194
13052		4.888059	1.063242	8.352427	0.005273	-0.004383	0.000059	-0.633301	-0.258057	-0.367920	-0.248405	-0.266489	0.011360	-0.931209
13053		4.880778	1.059350	8.352732	0.004367	-0.006047	-0.000522	-0.621582	-0.250244	-0.356934	-0.248354	-0.266474	0.011379	-0.931226
13054		4.881984	1.062422	8.361469	0.005506	-0.005209	0.000160	-0.628418	-0.251465	-0.360840	-0.248320	-0.266497	0.011418	-0.931228
13055		4.896393	1.060318	8.361374	0.005272	-0.004456	-0.000637	-0.627930	-0.257812	-0.353027	-0.248220	-0.266507	0.011449	-0.931252
13056		4.894092	1.048180	8.363442	0.003298	-0.005456	-0.000644	-0.626709	-0.257568	-0.359863	-0.248182	-0.266622	0.011438	-0.931229
13057		4.903532	1.057627	8.380828	0.001163	-0.004128	0.000503	-0.628418	-0.252197	-0.360352	-0.248198	-0.266626	0.011479	-0.931223
13058		4.904190	1.054045	8.361231	0.002599	-0.003052	-0.001643	-0.624512	-0.251953	-0.358643	-0.248131	-0.266616	0.011525	-0.931243
13059		4.896304	1.049750	8.361950	0.001833	-0.001858	-0.001108	-0.631348	-0.253662	-0.354980	-0.248116	-0.266586	0.011580	-0.931255
13060		4.888210	1.043574	8.353198	0.003503	-0.001534	-0.002457	-0.621338	-0.252930	-0.367676	-0.247996	-0.266643	0.011575	-0.931271
13061		4.891663	1.057690	8.350200	0.002734	-0.000486	-0.003317	-0.633301	-0.258301	-0.365967	-0.248135	-0.266482	0.011637	-0.931279
13062		4.896881	1.052578	8.361257	0.003501	-0.001607	-0.003154	-0.636230	-0.252686	-0.363281	-0.248123	-0.266437	0.011634	-0.931295
13063		4.902249	1.047326	8.372245	0.002670	-0.001623	-0.001085	-0.629395	-0.249268	-0.355957	-0.247941	-0.266427	0.011666	-0.931346
13064		4.897501	1.058570	8.379803	0.004336	-0.001445	-0.003828	-0.625977	-0.259766	-0.370850	-0.247810	-0.266457	0.011675	-0.931372
13065		4.889185	1.052834	8.371129	0.003572	-0.000178	-0.002596	-0.627197	-0.253662	-0.355469	-0.247981	-0.266304	0.011691	-0.931370
13066		4.892632	1.066952	8.368124	0.002665	-0.001842	-0.003176	-0.632324	-0.267334	-0.360840	-0.247945	-0.266336	0.011699	-0.931371
13067		4.897928	1.059665	8.369581	0.002970	-0.001166	-0.001821	-0.627930	-0.262939	-0.365967	-0.248036	-0.266354	0.011636	-0.931342
13068		4.881343	1.044703	8.342818	0.004038	-0.001829	-0.002394	-0.638672	-0.252441	-0.366455	-0.248167	-0.266295	0.011611	-0.931324
13069		4.893262	1.067863	8.357804	0.002734	-0.000487	-0.003316	-0.625488	-0.250244	-0.359131	-0.247988	-0.266253	0.011637	-0.931384
13070		4.890048	1.055566	8.360448	0.001598	-0.001179	-0.002602	-0.630127	-0.250244	-0.357422	-0.247953	-0.266219	0.011692	-0.931402
13071		4.885292	1.066895	8.367992	0.005405	-0.002036	-0.003702	-0.623047	-0.264893	-0.362793	-0.247829	-0.266251	0.011685	-0.931426
13072		4.898899	1.062830	8.358778	0.003809	-0.000783	-0.000403	-0.626221	-0.262695	-0.363770	-0.248035	-0.266193	0.011656	-0.931388
13073		4.890739	1.058655	8.359653	0.002134	-0.001401	-0.001843	-0.628174	-0.260254	-0.364258	-0.248178	-0.266141	0.011653	-0.931365
13074		4.891047	1.059431	8.359375	0.003203	-0.001991	-0.001719	-0.631836	-0.248779	-0.365479	-0.248247	-0.266101	0.011650	-0.931358
13075		4.886381	1.070695	8.366871	0.004036	-0.001902	-0.003090	-0.633057	-0.255371	-0.362793	-0.248103	-0.266050	0.011687	-0.931410
13076		4.878296	1.064946	8.358070	0.004036	-0.001902	-0.003089	-0.631592	-0.260498	-0.361816	-0.248029	-0.266047	0.011681	-0.931431
13077		4.880585	1.044784	8.362147	0.002829	-0.004097	-0.003629	-0.635986	-0.259277	-0.364258	-0.248058	-0.266076	0.011668	-0.931415
13078		4.897963	1.057616	8.369034	0.002902	-0.002521	-0.001679	-0.630127	-0.270752	-0.356689	-0.247988	-0.266083	0.011662	-0.931432
13079		4.889982	1.053476	8.369808	0.003508	-0.001313	-0.000364	-0.626953	-0.258545	-0.362061	-0.248111	-0.266144	0.011578	-0.931383
13080		4.886789	1.041233	8.372452	0.002197	-0.000266	-0.004074	-0.627441	-0.257080	-0.363037	-0.248190	-0.266096	0.011579	-0.931376
13081		4.885112	1.061431	8.358170	0.002666	-0.001843	-0.003174	-0.628906	-0.257568	-0.366943	-0.248231	-0.266058	0.011591	-0.931375
13082		4.895588	1.046172	8.361266	0.003733	-0.002506	-0.003746	-0.626953	-0.264648	-0.360107	-0.248274	-0.266001	0.011596	-0.931380
13083		4.899397	1.060233	8.358028	0.002602	-0.002978	-0.000941	-0.623535	-0.255127	-0.355225	-0.248389	-0.266018	0.011578	-0.931345
13084		4.883002	1.051314	8.359917	0.004104	-0.000546	-0.003230	-0.629639	-0.250977	-0.360596	-0.248423	-0.266027	0.011565	-0.931333
13085		4.878167	1.060509	8.357934	0.002366	-0.002300	-0.002437	-0.629883	-0.255615	-0.356934	-0.248325	-0.266020	0.011603	-0.931361
13086		4.900468	1.067273	8.376178	0.002896	-0.002816	-0.004464	-0.627930	-0.254150	-0.361328	-0.248300	-0.266067	0.011600	-0.931354
13087		4.875748	1.053719	8.379119	0.004336	-0.001445	-0.003824	-0.632568	-0.256592	-0.361084	-0.248287	-0.266046	0.011598	-0.931364
13088		4.901168	1.065654	8.356300	0.003669	-0.003714	-0.002210	-0.626465	-0.257812	-0.363037	-0.248223	-0.266079	0.011597	-0.931372
13089		4.885101	1.056972	8.357978	0.004805	-0.003022	-0.002923	-0.637939	-0.260742	-0.360596	-0.248277	-0.266059	0.011588	-0.931363
13090		4.883803	1.081455	8.362575	0.002666	-0.001843	-0.003172	-0.630127	-0.259766	-0.362549	-0.248207	-0.266105	0.011563	-0.931369
13091		4.894130	1.064225	8.356185	0.004336	-0.001445	-0.003823	-0.626465	-0.261230	-0.350830	-0.248243	-0.266092	0.011535	-0.931363
13092		4.904534	1.051139	8.368902	0.003504	-0.001533	-0.002452	-0.627441	-0.257812	-0.354492	-0.248295	-0.266176	0.011494	-0.931326
13093		4.876214	1.079957	8.362789	0.004038	-0.001828	-0.002390	-0.632080	-0.259033	-0.358643	-0.248299	-0.266226	0.011471	-0.931311
13094		4.891697	1.056493	8.367673	0.003505	-0.001459	-0.001756	-0.634033	-0.262451	-0.356934	-0.248264	-0.266255	0.011453	-0.931312
13095		4.883831	1.056896	8.387494	0.005642	-0.002786	-0.002899	-0.627441	-0.258789	-0.361572	-0.248244	-0.266336	0.011389	-0.931295
13096		4.865636	1.063378	8.356087	0.003202	-0.002064	-0.002412	-0.625977	-0.261230	-0.352539	-0.248285	-0.266318	0.011389	-0.931289
13097		4.896146	1.071058	8.354130	0.003737	-0.002358	-0.002349	-0.630859	-0.249512	-0.368408	-0.248346	-0.266388	0.011356	-0.931253
13098		4.884896	1.060106	8.386468	0.002737	-0.000339	-0.001920	-0.626465	-0.261230	-0.353027	-0.248245	-0.266284	0.011411	-0.931309
13099		4.885050	1.057027	8.367095	0.004271	-0.002727	-0.002983	-0.638184	-0.249512	-0.360352	-0.248306	-0.266358	0.011371	-0.931272
13100		4.888658	1.065044	8.335193	0.002902	-0.002594	-0.002371	-0.636963	-0.256348	-0.366699	-0.248095	-0.266391	0.011402	-0.931319
13101		4.877701	1.056422	8.376913	0.005105	-0.002565	-0.003657	-0.623779	-0.262207	-0.353760	-0.248010	-0.266377	0.011388	-0.931346
13102		4.886355	1.058586	8.356298	0.004576	-0.002048	-0.001630	-0.623291	-0.253418	-0.362549	-0.248098	-0.266424	0.011346	-0.931309
13103		4.878239	1.054798	8.357131	0.003266	-0.000857	-0.003946	-0.622803	-0.255127	-0.362793	-0.248158	-0.266354	0.011371	-0.931313
13104		4.891805	1.058826	8.386259	0.003036	0.000117	-0.002656	-0.622803	-0.255127	-0.355713	-0.248228	-0.266272	0.011392	-0.931318
13105		4.883463	1.052900	8.377659	0.004340	-0.001297	-0.002428	-0.627686	-0.259033	-0.360840	-0.248265	-0.266276	0.011387	-0.931307
13106		4.886808	1.063304	8.355435	0.005170	-0.001284	-0.004495	-0.622314	-0.254150	-0.355225	-0.248321	-0.266265	0.011354	-0.931295
13107		4.881844	1.074918	8.363033	0.003569	-0.000252	-0.003290	-0.630371	-0.258545	-0.364746	-0.248360	-0.266255	0.011355	-0.931288
13108		4.883505	1.052720	8.357986	0.003872	0.000353	-0.002633	-0.628662	-0.257080	-0.358398	-0.248367	-0.266197	0.011344	-0.931303
13109		4.891863	1.060661	8.366319	0.001899	-0.000650	-0.002638	-0.631348	-0.255127	-0.364502	-0.248366	-0.266192	0.011353	-0.931304
13110		4.896897	1.053511	8.367954	0.003868	0.000204	-0.004026	-0.627686	-0.259766	-0.360107	-0.248332	-0.266138	0.011349	-0.931329
13111		4.873286	1.074356	8.363712	0.003262	-0.001006	-0.005337	-0.629150	-0.254150	-0.359375	-0.248409	-0.266127	0.011330	-0.931311
13112		4.878177	1.065205	8.355847	0.002266	0.001236	-0.002821	-0.626465	-0.250244	-0.352539	-0.248366	-0.266092	0.011340	-0.931333
13113		4.861239	1.058014	8.367725	0.001434	0.001149	-0.001451	-0.630127	-0.257080	-0.364746	-0.248272	-0.266097	0.011367	-0.931356
13114		4.874767	1.055633	8.368179	0.004274	-0.002652	-0.002283	-0.637207	-0.256104	-0.364990	-0.248259	-0.266075	0.011368	-0.931366
13115		4.883688	1.061820	8.366565	0.004507	-0.003551	-0.002876	-0.622559	-0.256348	-0.361084	-0.248146	-0.266091	0.011357	-0.931392
13116		4.884228	1.062905	8.366112	0.002366	-0.002375	-0.003127	-0.625977	-0.259277	-0.367432	-0.248233	-0.266058	0.011385	-0.931378
13117		4.884634	1.065706	8.375357	0.001297	-0.001712	-0.002556	-0.632568	-0.257568	-0.369385	-0.248326	-0.265978	0.011422	-0.931375
13118		4.888257	1.079559	8.372186	0.003743	-0.002208	-0.000953	-0.623291	-0.261475	-0.361328	-0.248286	-0.265921	0.011435	-0.931402
13119		4.873614	1.045204	8.359642	0.004344	-0.001146	-0.001034	-0.635742	-0.256348	-0.356201	-0.248395	-0.265892	0.011424	-0.931381
13120		4.868811	1.058519	8.376759	0.002430	-0.001094	-0.003966	-0.629639	-0.250488	-0.359863	-0.248300	-0.265945	0.011409	-0.931391
13121		4.890738	1.057201	8.356871	0.003737	-0.002432	-0.003041	-0.625977	-0.248779	-0.358398	-0.248203	-0.265951	0.011421	-0.931416
13122		4.881168	1.078736	8.372048	0.003439	-0.002888	-0.002304	-0.629395	-0.259521	-0.363525	-0.248121	-0.265954	0.011450	-0.931436
13123		4.883453	1.054192	8.357135	0.002605	-0.003050	-0.001630	-0.634521	-0.252197	-0.359619	-0.248145	-0.265945	0.011463	-0.931432
13124		4.884044	1.055019	8.356685	0.002601	-0.003200	-0.003022	-0.630615	-0.262695	-0.356445	-0.248007	-0.265981	0.011474	-0.931458
13125		4.898126	1.055090	8.366340	0.005343	-0.003314	-0.002851	-0.625488	-0.248535	-0.364502	-0.248029	-0.266054	0.011420	-0.931433
13126		4.876803	1.054618	8.366437	0.003503	-0.001607	-0.003143	-0.626953	-0.265869	-0.353516	-0.247995	-0.265987	0.011460	-0.931460
13127		4.880450	1.070984	8.372756	0.003735	-0.002507	-0.003736	-0.628174	-0.265381	-0.360596	-0.248111	-0.266060	0.011412	-0.931409
13128		4.890899	1.053598	8.366385	0.002133	-0.001475	-0.002532	-0.623047	-0.257812	-0.361084	-0.248222	-0.266059	0.011401	-0.931380
13129		4.872788	1.065957	8.363663	0.004811	-0.002945	-0.002217	-0.631104	-0.253662	-0.358887	-0.248297	-0.266046	0.011400	-0.931364
13130		4.891939	1.057888	8.375074	0.003975	-0.003182	-0.002239	-0.618164	-0.256592	-0.360352	-0.248210	-0.266078	0.011400	-0.931378
13131		4.873816	1.063895	8.343644	0.002068	-0.002831	-0.002387	-0.628418	-0.256592	-0.371094	-0.248344	-0.266039	0.011442	-0.931352
13132		4.876109	1.047530	8.367071	0.002436	-0.000870	-0.001877	-0.631836	-0.262939	-0.354004	-0.248364	-0.265932	0.011476	-0.931377
13133		4.887903	1.066178	8.362853	0.001302	-0.001562	-0.001162	-0.630371	-0.252686	-0.355225	-0.248374	-0.265996	0.011470	-0.931356
13134		4.884884	1.054005	8.365487	0.005174	-0.001133	-0.003098	-0.630127	-0.265869	-0.364746	-0.248281	-0.266034	0.011442	-0.931371
13135		4.875022	1.071438	8.361660	0.002906	-0.002519	-0.001668	-0.635254	-0.250488	-0.355713	-0.248375	-0.266023	0.011437	-0.931349
13136		4.883827	1.075218	8.350555	0.002599	-0.003275	-0.003715	-0.631836	-0.261475	-0.359619	-0.248214	-0.266089	0.011442	-0.931373
13137		4.886334	1.059037	8.373845	0.002906	-0.002519	-0.001668	-0.630127	-0.253174	-0.373779	-0.248216	-0.266119	0.011433	-0.931364
13138		4.878510	1.052816	8.365008	0.003141	-0.003343	-0.001564	-0.627441	-0.256592	-0.363037	-0.248181	-0.266024	0.011481	-0.931400
13139		4.887235	1.054689	8.344348	0.004574	-0.002195	-0.003016	-0.626709	-0.252441	-0.358398	-0.248201	-0.266003	0.011476	-0.931401
13140		4.877616	1.078572	8.369076	0.004574	-0.002195	-0.003016	-0.631348	-0.256592	-0.357910	-0.248164	-0.266010	0.011472	-0.931409
13141		4.879846	1.058419	8.373361	0.003207	-0.001988	-0.001709	-0.630371	-0.255615	-0.354736	-0.248107	-0.266038	0.011467	-0.931416
13142		4.893762	1.056188	8.373562	0.003978	-0.003106	-0.001541	-0.624756	-0.265625	-0.364258	-0.248035	-0.266102	0.011454	-0.931417
13143		4.890974	1.046412	8.385618	0.005174	-0.001133	-0.003098	-0.631348	-0.246338	-0.352051	-0.248202	-0.266064	0.011425	-0.931383
13144		4.870694	1.075923	8.359255	0.002671	-0.001694	-0.001771	-0.629883	-0.248535	-0.355225	-0.248007	-0.266116	0.011437	-0.931421
13145		4.881187	1.058504	8.352886	0.003738	-0.002432	-0.003036	-0.628418	-0.251709	-0.368408	-0.247879	-0.266152	0.011439	-0.931444
13146		4.885094	1.076802	8.368617	0.003142	-0.003343	-0.001562	-0.623535	-0.251709	-0.355469	-0.247847	-0.266093	0.011484	-0.931469
13147		4.887559	1.056474	8.372804	0.003440	-0.002887	-0.002299	-0.634033	-0.253418	-0.360352	-0.247835	-0.266112	0.011500	-0.931467
13148		4.879566	1.050342	8.364064	0.003510	-0.001381	-0.001054	-0.634277	-0.256592	-0.360840	-0.247705	-0.266119	0.011495	-0.931499
13149		4.874978	1.063739	8.381032	0.004274	-0.002726	-0.002973	-0.627197	-0.253174	-0.366943	-0.247631	-0.266145	0.011473	-0.931512
13150		4.878471	1.073710	8.358684	0.002669	-0.001770	-0.002466	-0.622803	-0.258057	-0.358887	-0.247650	-0.266076	0.011513	-0.931526
13151		4.884023	1.066592	8.360044	0.003973	-0.003256	-0.002931	-0.631836	-0.250244	-0.361816	-0.247747	-0.266082	0.011518	-0.931498
13152		4.876068	1.062767	8.360834	0.003805	-0.001001	-0.002486	-0.627930	-0.256836	-0.362793	-0.247632	-0.266061	0.011520	-0.931535
13153		4.892904	1.077975	8.377437	0.002190	-0.000348	-0.004763	-0.623047	-0.256348	-0.367432	-0.247689	-0.266015	0.011530	-0.931533
13154		4.891402	1.042505	8.375403	0.001654	-0.000055	-0.004826	-0.631592	-0.256592	-0.359131	-0.247833	-0.265912	0.011573	-0.931524
13155		4.886307	1.051916	8.373483	0.003790	-0.001455	-0.006659	-0.629883	-0.245850	-0.367676	-0.247831	-0.265927	0.011540	-0.931520
13156		4.879466	1.082641	8.366799	0.001585	-0.001562	-0.006070	-0.629150	-0.252441	-0.366211	-0.247760	-0.265849	0.011584	-0.931560
13157		4.895034	1.059695	8.371738	0.006779	-0.002087	-0.003601	-0.629639	-0.255127	-0.360596	-0.247730	-0.265813	0.011563	-0.931579
13158		4.910951	1.037788	8.376351	0.012433	-0.004639	-0.004399	-0.628662	-0.256104	-0.351807	-0.247686	-0.265873	0.011457	-0.931575
13159		4.863932	1.077933	8.357942	0.013756	0.000045	-0.006250	-0.629150	-0.256348	-0.360596	-0.247639	-0.265945	0.011292	-0.931569
13160		4.880634	1.095747	8.374262	0.011773	-0.001343	-0.009727	-0.624512	-0.257812	-0.371338	-0.247680	-0.265962	0.011167	-0.931555
13161		4.911144	1.046044	8.365373	0.013474	0.000047	-0.001338	-0.625977	-0.260498	-0.357666	-0.247760	-0.265874	0.011092	-0.931559
13162		4.882115	1.075055	8.349590	0.018484	0.001324	-0.002596	-0.628418	-0.257324	-0.362549	-0.247775	-0.265898	0.010900	-0.931551
13163		4.874622	1.111927	8.362105	0.010086	0.003985	-0.001972	-0.626953	-0.254639	-0.358887	-0.247757	-0.265832	0.010811	-0.931576
13164		4.842486	1.040864	8.388110	0.008366	-0.009364	-0.004094	-0.627197	-0.263428	-0.359619	-0.247734	-0.265934	0.010773	-0.931553
13165		4.864092	1.119086	8.359275	0.006761	-0.014118	0.001977	-0.631592	-0.257568	-0.364746	-0.247759	-0.266094	0.010780	-0.931501
13166		4.840262	1.097499	8.391946	0.000254	-0.023758	0.009019	-0.623291	-0.265381	-0.362061	-0.247611	-0.266312	0.010925	-0.931476
13167		4.897920	1.101065	8.367154	0.003217	-0.030936	0.010004	-0.626221	-0.250732	-0.361816	-0.247652	-0.266622	0.011071	-0.931375
13168		4.903876	1.027959	8.299817	0.003237	-0.024691	0.009306	-0.627686	-0.258057	-0.364502	-0.247471	-0.266845	0.011201	-0.931357
13169		4.880510	1.008598	8.341844	0.006107	-0.016306	0.004303	-0.626953	-0.257080	-0.361084	-0.247439	-0.266974	0.011253	-0.931328
13170		4.951085	1.084207	8.322810	0.011123	-0.009018	0.000246	-0.621582	-0.264404	-0.364258	-0.247425	-0.267054	0.011206	-0.931309
13171		4.819719	1.069031	8.356640	0.011593	-0.010742	-0.000234	-0.629150	-0.263916	-0.361572	-0.247600	-0.267124	0.011176	-0.931243
13172		4.751990	1.042544	8.371453	0.016368	-0.026175	-0.001021	-0.632568	-0.257324	-0.355957	-0.247652	-0.267433	0.011110	-0.931142
13173		4.834516	1.024488	8.320591	0.016787	-0.046630	0.000643	-0.631348	-0.252686	-0.358398	-0.247531	-0.268017	0.011093	-0.931006
13174		4.806209	0.949415	8.262689	0.045012	-0.054308	-0.014465	-0.625244	-0.255127	-0.354004	-0.247445	-0.268744	0.010730	-0.930824
13175		4.785613	1.096074	8.205467	0.058415	-0.044173	-0.014148	-0.633545	-0.265137	-0.359131	-0.247411	-0.269399	0.010191	-0.930649
13176		4.770643	1.345463	8.176390	0.028742	-0.014900	0.004040	-0.629639	-0.268311	-0.358643	-0.247326	-0.269617	0.009960	-0.930611
13177		4.901612	1.098370	8.499741	-0.000128	-0.004857	0.042091	-0.635254	-0.254395	-0.349609	-0.246988	-0.269616	0.010170	-0.930699
13178		4.653209	1.016770	8.705703	0.064865	-0.109202	0.050943	-0.632324	-0.263916	-0.352539	-0.246039	-0.271088	0.009947	-0.930525
13179		4.630260	1.047604	8.678002	0.138214	-0.282945	0.072479	-0.632080	-0.251953	-0.350586	-0.244769	-0.274767	0.009497	-0.929785
13180		5.382624	1.182693	7.879741	0.142606	-0.305679	0.084739	-0.642822	-0.260010	-0.348389	-0.243192	-0.278664	0.009115	-0.929043
13181		5.547438	1.150027	7.623921	0.059499	-0.100120	0.069238	-0.639893	-0.251221	-0.340576	-0.242157	-0.279933	0.009013	-0.928933
13182		5.259466	1.153952	8.280341	0.016919	0.019843	0.042015	-0.637695	-0.260010	-0.338379	-0.241512	-0.279700	0.008943	-0.929172
13183		4.882816	1.289223	8.628530	0.017815	-0.084662	0.089403	-0.641846	-0.251465	-0.334961	-0.240470	-0.280702	0.009354	-0.929136
13184		5.242061	0.911240	8.105065	0.035151	-0.161139	0.108774	-0.642334	-0.248047	-0.343506	-0.238982	-0.282652	0.009841	-0.928923
13185		5.717377	0.882206	7.527152	0.002102	0.007824	0.020271	-0.646240	-0.250732	-0.333984	-0.238668	-0.282465	0.009917	-0.929060
13186		5.298185	1.133965	8.039744	-0.026961	0.192368	0.008338	-0.648193	-0.242920	-0.340820	-0.238607	-0.280135	0.009717	-0.929783
13187		4.276703	1.278704	9.181772	0.005390	-0.007068	0.040052	-0.651367	-0.250000	-0.338867	-0.237889	-0.280189	0.009834	-0.929950
13188		4.187643	1.371592	9.708957	0.141444	-0.585916	0.037234	-0.644531	-0.252441	-0.324951	-0.236727	-0.287400	0.010072	-0.928041
13189		3.098354	0.029242	11.677683	0.330575	-1.583369	-0.023554	-0.657471	-0.252197	-0.305908	-0.235571	-0.306672	0.010875	-0.922139
13190		2.658874	-0.801416	13.352639	0.912100	-3.705200	-0.281846	-0.673096	-0.269043	-0.224121	-0.234531	-0.351651	0.010229	-0.906219
13191		2.849732	0.237978	12.975843	1.433089	-6.204977	-0.354009	-0.700684	-0.279785	-0.100098	-0.230816	-0.424995	0.010665	-0.875208
13192		13.431588	3.035905	16.408880	1.818752	-5.724631	-0.503215	-0.696533	-0.291992	0.014648	-0.225247	-0.491756	0.004595	-0.841082
13193		37.157092	4.175964	0.966195	0.608446	-1.831014	0.648195	-0.700439	-0.289062	0.047607	-0.214632	-0.512644	0.007384	-0.831309
13194		7.038141	0.385131	-9.097979	0.429473	1.945306	1.546890	-0.718994	-0.266846	0.018555	-0.196286	-0.493309	0.007824	-0.847382
13195		5.833443	3.182319	-5.950653	1.669767	0.120772	1.299312	-0.711670	-0.242920	0.027100	-0.172674	-0.496004	-0.001860	-0.850976
13196		-0.447659	3.357084	-1.205465	0.971966	0.133776	0.491963	-0.729004	-0.238037	0.031738	-0.162082	-0.496837	-0.009041	-0.852526
13197		-2.642006	0.682177	3.467539	0.199525	-0.407547	0.134249	-0.719238	-0.236572	0.042480	-0.160045	-0.501759	-0.009146	-0.850023
13198		-4.710793	-2.215600	4.845125	-0.239127	-0.218629	0.152882	-0.725586	-0.240723	0.049072	-0.160450	-0.503740	-0.004877	-0.848810
13199		-3.109452	-3.520876	2.995481	0.284971	-0.234071	0.439004	-0.727783	-0.220459	0.055420	-0.154298	-0.506858	-0.004434	-0.848096
13200		-1.138083	-1.050584	0.754103	0.993836	-0.246437	0.443258	-0.726318	-0.203125	0.064453	-0.143336	-0.511353	-0.011586	-0.847254
13201		1.446066	2.446197	-1.395794	1.051937	-0.569341	0.237103	-0.734375	-0.205322	0.078857	-0.134162	-0.519217	-0.020118	-0.843807
13202		39.969851	9.878878	-0.334286	0.454608	-0.998064	-0.267371	-0.716797	-0.196289	0.093018	-0.134294	-0.530361	-0.024887	-0.836697
13203		15.985817	2.933401	-7.152855	-1.399544	5.440547	-0.945337	-0.731201	-0.216064	-0.010742	-0.151396	-0.469507	-0.025538	-0.869477
13204		-2.791187	1.569997	26.140106	-1.007887	5.972448	-0.554511	-0.713623	-0.221924	-0.134033	-0.160977	-0.401220	-0.028995	-0.901259
13205		7.829182	5.575692	4.949706	-0.450651	3.996379	0.032231	-0.689941	-0.227295	-0.204590	-0.161182	-0.354759	-0.031713	-0.920413
13206		-1.264592	1.100260	17.100821	-0.504518	2.244208	0.553356	-0.687256	-0.212891	-0.239746	-0.156112	-0.327949	-0.027919	-0.931289
13207		4.172930	-1.067295	10.886865	-0.186307	-0.298098	0.339831	-0.689697	-0.201904	-0.244629	-0.152999	-0.331143	-0.023744	-0.930791
13208		8.656151	2.044451	4.680114	-0.062704	-0.274688	0.087399	-0.696289	-0.196533	-0.232178	-0.152281	-0.334187	-0.022096	-0.929861
13209		7.926907	1.751582	5.123664	-0.319815	1.033864	0.137930	-0.691895	-0.197266	-0.255859	-0.151661	-0.321544	-0.019736	-0.934462
13210		6.450592	0.901859	7.116703	-0.414002	1.778270	0.080244	-0.676025	-0.186523	-0.289551	-0.151887	-0.299896	-0.017902	-0.941633
13211		1.793258	0.679336	11.510327	-0.303520	1.181585	0.049499	-0.667480	-0.186035	-0.320557	-0.152109	-0.285353	-0.016351	-0.946134
13212		4.358279	1.053560	9.199067	-0.024988	-0.210573	0.028234	-0.673096	-0.183838	-0.311279	-0.151862	-0.287741	-0.015526	-0.945464
13213		6.414304	0.862590	7.110617	-0.034582	0.000115	-0.047551	-0.674561	-0.183350	-0.312744	-0.152498	-0.287622	-0.015258	-0.945402
13214		4.792347	1.414600	8.598694	-0.050554	0.080911	-0.050050	-0.671387	-0.188965	-0.313965	-0.153204	-0.286519	-0.014963	-0.945627
13215		5.425587	1.248334	7.958647	-0.073612	0.025464	0.004585	-0.684082	-0.182861	-0.317139	-0.153390	-0.286040	-0.014083	-0.945756
13216		5.154799	1.187930	8.230020	-0.095584	0.082703	0.018330	-0.669189	-0.182617	-0.315918	-0.153434	-0.284847	-0.013019	-0.946124
13217		5.076533	0.948613	8.298253	-0.067982	0.034289	0.019898	-0.663818	-0.179199	-0.310547	-0.153399	-0.284275	-0.012176	-0.946313
13218		5.204301	0.912421	8.073894	-0.032509	0.019042	0.007478	-0.668701	-0.184326	-0.314697	-0.153393	-0.283958	-0.011760	-0.946414
13219		5.119314	0.906625	8.115939	-0.024076	0.055612	-0.002450	-0.668213	-0.177979	-0.324219	-0.153489	-0.283223	-0.011543	-0.946622
13220		4.997671	0.746626	8.214655	0.028568	0.028558	-0.031601	-0.669922	-0.180420	-0.322510	-0.153697	-0.282885	-0.012029	-0.946683
13221		4.968418	0.929304	8.078881	0.057985	0.007043	-0.059748	-0.679443	-0.186768	-0.315186	-0.154153	-0.282861	-0.012910	-0.946604
13222		4.904858	1.140702	7.936201	0.025293	0.037597	-0.055189	-0.671143	-0.184082	-0.324219	-0.154699	-0.282439	-0.013418	-0.946634
13223		4.797077	1.047277	8.154984	-0.018376	0.012577	-0.019471	-0.673584	-0.179688	-0.316895	-0.154950	-0.282208	-0.013264	-0.946664
13224		5.152239	0.897022	7.998675	-0.019258	0.053233	-0.009149	-0.657715	-0.184082	-0.326172	-0.155064	-0.281512	-0.013133	-0.946855
13225		5.209394	0.921083	8.008947	0.030546	0.136493	-0.019121	-0.666992	-0.180664	-0.322510	-0.155136	-0.279899	-0.013800	-0.947311
13226		4.792744	1.013131	8.598148	0.101084	0.070202	-0.013795	-0.661865	-0.188965	-0.326904	-0.154888	-0.279227	-0.015146	-0.947530
13227		4.555626	0.957463	9.189506	0.251130	-0.286855	-0.043815	-0.662598	-0.189697	-0.313232	-0.154579	-0.283059	-0.017673	-0.946399
13228		4.827458	1.758735	9.528860	0.335481	-0.748173	-0.044183	-0.674561	-0.196045	-0.300293	-0.154079	-0.292507	-0.020291	-0.943551
13229		2.142878	1.063772	13.134510	0.404615	-1.971604	-0.077107	-0.692627	-0.196289	-0.260010	-0.153973	-0.316402	-0.021475	-0.935800
13230		1.769951	-0.341091	14.726337	0.964390	-4.713883	-0.122537	-0.712158	-0.201904	-0.162109	-0.152571	-0.372742	-0.024062	-0.914990
13231		5.891192	1.419133	15.451218	1.501348	-7.112542	0.033622	-0.727295	-0.210938	-0.025635	-0.146719	-0.455324	-0.027307	-0.877729
13232		17.627704	5.038488	12.530923	1.446963	-4.648068	0.120178	-0.728027	-0.221680	0.059814	-0.138553	-0.508188	-0.033794	-0.849356
13233		31.873329	8.697500	1.906009	-0.486941	0.695670	0.859754	-0.727783	-0.200439	0.042480	-0.132425	-0.500283	-0.024216	-0.855333
13234		2.291119	0.153518	-4.492469	-0.345551	1.961776	1.634240	-0.738770	-0.177246	-0.001465	-0.116608	-0.478983	-0.013423	-0.869941
13235		1.659985	5.686291	-2.730029	0.336074	0.913031	0.087780	-0.740234	-0.177979	-0.011963	-0.113700	-0.469499	-0.017751	-0.875402
13236		-3.773752	1.641435	-3.083671	-0.423056	0.195056	-1.223341	-0.738037	-0.199219	-0.010986	-0.129762	-0.466443	-0.020422	-0.874743
13237		-0.872585	-4.141699	-1.222012	-0.435967	-1.014625	-0.658985	-0.730225	-0.213135	0.005127	-0.139991	-0.476653	-0.017676	-0.867694
13238		-0.090507	-3.120554	0.009506	0.152616	-1.112238	-0.311177	-0.734863	-0.214600	0.023926	-0.142950	-0.488908	-0.019028	-0.860333
13239		0.324417	-0.729946	-0.037182	-0.049109	-1.338452	0.020958	-0.729736	-0.217773	0.049805	-0.143469	-0.503163	-0.015826	-0.852052
13240		3.584787	-0.326350	-0.147183	-0.273199	-1.159870	0.241291	-0.727539	-0.205566	0.061035	-0.143023	-0.515037	-0.009120	-0.845103
13241		3.373929	-0.658461	-1.765805	0.144517	-0.745542	0.273356	-0.730957	-0.196533	0.083496	-0.139300	-0.523146	-0.007490	-0.840748
13242		28.222863	1.785955	-0.399749	1.051685	-1.018409	-0.163221	-0.725342	-0.195557	0.101074	-0.134228	-0.535583	-0.017751	-0.833558
13243		24.731281	4.901980	-3.335197	-1.236301	5.502894	-0.760712	-0.726318	-0.194092	-0.016357	-0.148844	-0.474687	-0.019089	-0.867268
13244		0.192446	2.766053	22.464550	-0.918800	6.661401	-0.775207	-0.719238	-0.220215	-0.144287	-0.160243	-0.398882	-0.026148	-0.902514
13245		3.867566	7.251967	11.032669	-0.534196	4.627702	0.211555	-0.695557	-0.191650	-0.234131	-0.158609	-0.344919	-0.028284	-0.924702
13246		-0.770006	-3.651528	18.145619	-0.402410	1.725498	0.568277	-0.692383	-0.191650	-0.256836	-0.152610	-0.324100	-0.024717	-0.933305
13247		5.197514	-1.031678	9.078845	0.237340	-0.935961	-0.202515	-0.695557	-0.197266	-0.245117	-0.154076	-0.335307	-0.026531	-0.929046
13248		10.296049	4.155544	2.670587	0.006536	0.161783	-0.197325	-0.692139	-0.211670	-0.245361	-0.156129	-0.333266	-0.027739	-0.929402
13249		8.226344	2.482947	5.180405	-0.513334	1.847420	0.095006	-0.682129	-0.193115	-0.283691	-0.156508	-0.310680	-0.024916	-0.937210
13250		3.460821	0.746686	10.494668	-0.604841	2.011116	0.148049	-0.679932	-0.192383	-0.319824	-0.156261	-0.285783	-0.021182	-0.945231
13251		1.009543	0.452611	11.590070	-0.145079	0.084380	0.038915	-0.658203	-0.171143	-0.318604	-0.156162	-0.284462	-0.019474	-0.945682
13252		6.345846	1.306509	7.097347	-0.053976	-0.319008	0.016380	-0.675293	-0.180908	-0.316650	-0.155977	-0.288027	-0.018176	-0.944659
13253		5.563563	0.892794	7.799176	-0.038122	-0.005878	-0.012211	-0.681152	-0.181152	-0.316162	-0.156091	-0.287954	-0.017751	-0.944671
13254		4.999811	1.043843	8.316970	0.040004	-0.078008	-0.047309	-0.666504	-0.187012	-0.308105	-0.156351	-0.288895	-0.018232	-0.944331
13255		5.034567	1.250880	8.109532	0.067775	-0.127680	-0.045718	-0.672363	-0.184082	-0.319092	-0.156657	-0.290492	-0.018893	-0.943778
13256		5.264945	1.032249	7.963070	0.062216	-0.086674	-0.042209	-0.672119	-0.185791	-0.312012	-0.156872	-0.291542	-0.019585	-0.943404
13257		5.199850	1.238929	8.016930	0.070009	-0.052972	-0.063952	-0.676758	-0.190430	-0.313721	-0.157322	-0.292232	-0.020504	-0.943096
13258		5.276272	1.520773	7.972241	0.034075	-0.006820	-0.028150	-0.674316	-0.188232	-0.307617	-0.157482	-0.292318	-0.020956	-0.943033
13259		5.045756	1.324999	8.115329	0.018152	-0.012546	-0.005801	-0.665771	-0.186768	-0.306152	-0.157424	-0.292463	-0.021128	-0.942993
13260		4.875044	1.197007	8.265412	0.022461	-0.091731	0.007612	-0.674072	-0.184082	-0.305908	-0.157246	-0.293548	-0.021139	-0.942686
13261		4.087779	1.169889	8.528573	0.086867	-0.296908	0.009070	-0.675537	-0.189209	-0.305908	-0.156807	-0.297177	-0.021518	-0.941613
13262		4.346386	1.121875	8.994812	0.130583	-0.688401	0.076326	-0.686035	-0.196777	-0.294434	-0.155566	-0.305491	-0.021384	-0.939158
13263		6.201332	1.184939	7.370682	0.155579	-0.809465	0.070757	-0.693115	-0.187744	-0.273193	-0.154360	-0.315256	-0.021307	-0.936126
13264		6.531938	1.721259	6.619616	0.107947	-0.457377	0.087331	-0.690674	-0.187012	-0.267090	-0.152960	-0.320806	-0.021308	-0.934469
13265		6.450079	1.444604	6.698446	-0.001643	-0.007012	0.137517	-0.687988	-0.186523	-0.267334	-0.151322	-0.320882	-0.020684	-0.934724
13266		6.370220	1.434830	6.816404	-0.116874	0.423377	0.165869	-0.685303	-0.184082	-0.275146	-0.149735	-0.315714	-0.019402	-0.936764
13267		5.914216	1.217707	7.837203	-0.153451	0.689302	0.192744	-0.684570	-0.178711	-0.285156	-0.147919	-0.307354	-0.018076	-0.939855
13268		3.949175	1.037895	10.842058	-0.038494	0.126345	0.171421	-0.684082	-0.177490	-0.289551	-0.146011	-0.305812	-0.017143	-0.940673
13269		3.295460	0.259781	12.005083	0.264776	-1.445863	0.033664	-0.687988	-0.165771	-0.264648	-0.144892	-0.323219	-0.017428	-0.935004
13270		4.226871	0.221579	11.370434	0.674200	-3.071127	-0.172362	-0.709229	-0.185547	-0.202637	-0.144636	-0.359978	-0.020430	-0.921455
13271		4.190678	0.807005	11.649415	0.927025	-4.861629	-0.143903	-0.721680	-0.189697	-0.105469	-0.143108	-0.416863	-0.022847	-0.897342
13272		8.939818	3.301083	14.536938	1.024775	-5.960473	0.068106	-0.731934	-0.197998	0.013672	-0.138329	-0.484309	-0.023165	-0.863582
13273		12.931280	3.282251	10.217834	1.303256	-3.873244	0.158835	-0.728271	-0.194580	0.090820	-0.129791	-0.527807	-0.029392	-0.838874
13274		34.170671	8.976606	1.254467	0.284894	-0.330586	0.807638	-0.736816	-0.184326	0.095459	-0.119704	-0.532040	-0.026355	-0.837800
13275		4.478266	12.203593	-3.823787	-1.572952	2.120657	-0.814236	-0.732178	-0.201904	0.048096	-0.138116	-0.506922	-0.018302	-0.850658
13276		-1.322517	1.887709	-3.521857	-1.649356	0.668588	-3.190273	-0.705078	-0.275879	0.026855	-0.182372	-0.495734	-0.022003	-0.848825
13277		-2.021230	-6.641017	-1.985486	-1.058722	-0.588990	-2.573835	-0.688721	-0.327148	0.030518	-0.216796	-0.498613	-0.025080	-0.838901
13278		2.810450	-10.542856	1.528215	0.248274	-0.943598	-0.085796	-0.696533	-0.321777	0.061279	-0.216981	-0.509194	-0.025316	-0.832466
13279		1.671227	-4.288766	2.143319	1.296758	0.073091	0.899869	-0.697754	-0.308838	0.057861	-0.199650	-0.512250	-0.032973	-0.834657
13280		0.807595	-1.017669	0.913112	1.011831	0.349809	1.664948	-0.711914	-0.262207	0.063232	-0.175853	-0.511671	-0.033493	-0.840326
13281		0.927503	0.711131	-1.629887	0.850884	0.301893	1.590329	-0.723877	-0.231689	0.051270	-0.153582	-0.510907	-0.032793	-0.845169
13282		0.560218	2.640974	-4.209133	0.566731	-0.411483	0.919303	-0.715820	-0.214111	0.072021	-0.140394	-0.516628	-0.032042	-0.844013
13283		1.913426	3.999515	-4.178731	0.007317	-1.359640	-0.243674	-0.715820	-0.210449	0.096436	-0.143501	-0.530821	-0.031170	-0.834664
13284		50.118704	6.887936	-7.488019	-1.852988	3.864922	-1.154336	-0.711914	-0.231689	0.000732	-0.166083	-0.485934	-0.026324	-0.857667
13285		0.903289	5.942202	28.489209	-1.464163	7.512395	-0.784722	-0.697998	-0.240723	-0.145264	-0.180074	-0.399951	-0.030811	-0.898144
13286		7.173076	4.354652	6.676612	-0.888469	5.118859	0.592612	-0.681396	-0.220459	-0.252441	-0.175384	-0.339798	-0.029306	-0.923536
13287		-4.408684	-1.809081	19.394281	-0.913658	3.308135	0.560744	-0.656738	-0.203125	-0.319092	-0.171204	-0.299324	-0.023585	-0.938370
13288		0.659658	-1.136484	15.245689	-0.116701	-1.027314	0.201630	-0.677734	-0.193115	-0.300781	-0.169412	-0.310968	-0.019230	-0.935002
13289		7.989257	1.471349	5.743150	0.252074	-2.068248	0.070932	-0.697266	-0.199707	-0.247803	-0.167898	-0.335482	-0.017485	-0.926799
13290		8.629966	1.284565	4.411248	0.200278	-0.860409	-0.061195	-0.694336	-0.206543	-0.234375	-0.167894	-0.345823	-0.018207	-0.922977
13291		6.803945	1.757988	6.546675	0.052877	-0.104494	-0.150688	-0.688721	-0.204590	-0.232666	-0.169441	-0.347082	-0.019183	-0.922202
13292		5.351523	2.098907	8.153361	-0.002711	-0.119641	-0.043129	-0.691406	-0.207764	-0.231689	-0.169979	-0.348419	-0.019024	-0.921602
13293		5.737428	1.592137	7.935399	-0.025895	-0.395658	0.075053	-0.695312	-0.202148	-0.226562	-0.169324	-0.352909	-0.017498	-0.920043
13294		6.584525	0.875763	6.568424	-0.035263	-0.327310	0.028715	-0.699219	-0.202637	-0.218262	-0.169206	-0.356572	-0.016221	-0.918674
13295		6.905352	1.123821	6.060607	-0.046316	0.000205	-0.072223	-0.698242	-0.206055	-0.224121	-0.170237	-0.356434	-0.015954	-0.918542
13296		6.473216	1.750416	6.651836	-0.035475	0.289744	-0.085702	-0.703125	-0.203613	-0.227051	-0.171326	-0.352986	-0.016483	-0.919661
13297		6.293414	2.035198	6.981502	-0.059930	0.483249	-0.001208	-0.686768	-0.209473	-0.238037	-0.171487	-0.347272	-0.016781	-0.921799
13298		6.256907	1.676183	7.264727	-0.162241	0.656327	0.064501	-0.686768	-0.207520	-0.250977	-0.171329	-0.339338	-0.015969	-0.924792
13299		5.880981	1.344016	7.748268	-0.217233	0.685520	0.082936	-0.681885	-0.203613	-0.262695	-0.171166	-0.330927	-0.014508	-0.927890
13300		5.818504	0.928940	7.878452	-0.185253	0.616090	0.045229	-0.678711	-0.200195	-0.276855	-0.171303	-0.323359	-0.013426	-0.930545
13301		5.675702	1.247216	7.915561	-0.136130	0.532532	0.009385	-0.678223	-0.200195	-0.280518	-0.171654	-0.316840	-0.012886	-0.932728
13302		5.391897	1.314228	8.125532	-0.119617	0.449572	0.012246	-0.672607	-0.185547	-0.292480	-0.171924	-0.311320	-0.012340	-0.934542
13303		5.385781	1.278603	8.267868	-0.126210	0.303025	0.032005	-0.666260	-0.190674	-0.299316	-0.171941	-0.307480	-0.011362	-0.935822
13304		5.570618	1.087195	8.117196	-0.100823	0.204225	0.022477	-0.668945	-0.188232	-0.301270	-0.172020	-0.304846	-0.010487	-0.936679
13305		5.768174	1.017669	7.807496	-0.077511	0.207606	-0.010489	-0.673340	-0.188965	-0.310791	-0.172391	-0.302219	-0.010017	-0.937467
13306		5.565966	1.320057	7.672462	-0.064407	0.322026	-0.023779	-0.669189	-0.193115	-0.312988	-0.172847	-0.298272	-0.010000	-0.938647
13307		4.695343	0.885568	8.514687	-0.054109	0.247667	-0.011598	-0.654053	-0.189697	-0.310303	-0.173157	-0.295223	-0.009883	-0.939554
13308		5.380413	1.140211	8.126785	-0.023360	0.141431	-0.022773	-0.676025	-0.188721	-0.321777	-0.173505	-0.293487	-0.009934	-0.940033
13309		5.432492	1.082175	8.158569	-0.013368	0.133763	-0.036734	-0.664551	-0.191406	-0.322998	-0.173946	-0.291857	-0.010151	-0.940457
13310		5.529891	1.081186	8.066664	-0.005360	0.158813	-0.056273	-0.653076	-0.194092	-0.336670	-0.174604	-0.289945	-0.010581	-0.940922
13311		5.137585	1.411507	8.174152	-0.024196	0.198247	-0.052906	-0.656738	-0.200195	-0.332520	-0.175279	-0.287512	-0.010874	-0.941539
13312		4.882944	1.408021	8.255172	-0.070571	0.172500	0.003519	-0.654053	-0.201172	-0.340332	-0.175491	-0.285302	-0.010342	-0.942178
13313		5.013295	1.048321	8.295818	-0.064447	0.102229	0.023762	-0.654297	-0.199463	-0.333740	-0.175445	-0.283929	-0.009662	-0.942608
13314		5.132947	1.024374	8.198346	-0.022887	0.041152	0.002620	-0.655762	-0.194580	-0.342041	-0.175520	-0.283375	-0.009402	-0.942764
13315		5.209448	1.081448	8.157492	-0.006964	0.032841	-0.006489	-0.655273	-0.194092	-0.338135	-0.175612	-0.282941	-0.009362	-0.942877
13316		5.137312	1.088008	8.174502	-0.002303	0.037438	-0.009185	-0.651855	-0.197266	-0.335205	-0.175727	-0.282469	-0.009390	-0.942997
13317		5.096063	1.162809	8.218487	-0.003243	0.033866	-0.007857	-0.656982	-0.190186	-0.341064	-0.175850	-0.282042	-0.009385	-0.943102
13318		5.035295	1.148817	8.188994	-0.004582	0.023589	-0.000188	-0.655518	-0.195068	-0.344727	-0.175850	-0.281727	-0.009331	-0.943197
13319		5.106581	1.136356	8.221535	-0.006095	0.014783	0.002771	-0.657959	-0.189453	-0.337646	-0.175833	-0.281510	-0.009228	-0.943265
13320		5.043339	1.109644	8.234777	0.000269	-0.002764	0.001995	-0.653076	-0.189209	-0.344238	-0.175804	-0.281522	-0.009157	-0.943268
13321		5.049229	1.115624	8.210579	0.002754	-0.017991	0.004197	-0.656006	-0.187744	-0.336914	-0.175726	-0.281709	-0.009088	-0.943228
13322		5.103886	1.134545	8.229256	0.001158	-0.024863	0.005326	-0.652832	-0.194824	-0.340088	-0.175654	-0.281983	-0.008969	-0.943160
13323		5.186034	1.102351	8.221467	0.002829	-0.024721	0.003954	-0.645508	-0.183594	-0.333740	-0.175610	-0.282256	-0.008873	-0.943088
13324		5.194532	1.129242	8.189091	0.002299	-0.014398	0.002046	-0.653076	-0.185059	-0.339111	-0.175562	-0.282405	-0.008808	-0.943052
13325		5.119157	1.098822	8.172247	-0.002899	0.001330	0.001020	-0.655762	-0.186523	-0.336426	-0.175538	-0.282354	-0.008722	-0.943073
13326		5.115461	1.095332	8.204833	-0.002522	0.004994	-0.001830	-0.654053	-0.181152	-0.332520	-0.175559	-0.282267	-0.008651	-0.943096
13327		5.141909	1.112339	8.218831	-0.003150	0.007134	-0.004476	-0.652832	-0.184326	-0.342773	-0.175605	-0.282155	-0.008585	-0.943121
13328		5.153399	1.127559	8.214160	-0.007439	0.013278	-0.002218	-0.656250	-0.192139	-0.337891	-0.175627	-0.281948	-0.008490	-0.943180
13329		5.175512	1.099004	8.234278	-0.008598	0.020420	-0.003595	-0.653809	-0.187500	-0.342285	-0.175710	-0.281668	-0.008380	-0.943249
13330		5.105001	1.098230	8.231005	-0.008367	0.022747	-0.006207	-0.654541	-0.191162	-0.331787	-0.175797	-0.281351	-0.008302	-0.943328
13331		5.065665	1.117592	8.208573	-0.006906	0.017752	-0.000030	-0.658691	-0.184082	-0.347412	-0.175849	-0.281116	-0.008181	-0.943390
13332		5.117373	1.067985	8.223370	-0.004302	0.013749	-0.000587	-0.650635	-0.187256	-0.334473	-0.175831	-0.280909	-0.008121	-0.943455
13333		5.115894	1.091864	8.227474	0.001374	0.012795	-0.005889	-0.657471	-0.189453	-0.341553	-0.175905	-0.280743	-0.008118	-0.943491
13334		5.112450	1.092703	8.229503	-0.000411	0.019152	-0.005690	-0.654785	-0.182617	-0.341064	-0.175973	-0.280493	-0.008114	-0.943553
13335		5.129324	1.091920	8.231570	-0.004868	0.026769	-0.008128	-0.648193	-0.185791	-0.332764	-0.176059	-0.280139	-0.008091	-0.943642
13336		5.085218	1.126322	8.226128	-0.010477	0.030996	-0.004877	-0.649658	-0.193604	-0.341309	-0.176165	-0.279735	-0.007981	-0.943743
13337		4.975128	1.104021	8.252686	-0.008391	0.016780	0.001521	-0.656982	-0.187012	-0.347412	-0.176197	-0.279495	-0.007849	-0.943809
13338		5.089349	1.059928	8.261512	0.000591	0.002953	-0.001958	-0.650146	-0.187988	-0.345459	-0.176196	-0.279431	-0.007821	-0.943829
13339		5.097047	1.082321	8.244374	0.003779	0.009509	-0.007313	-0.659424	-0.184570	-0.340576	-0.176257	-0.279294	-0.007862	-0.943857
13340		5.116615	1.085740	8.254250	0.001658	0.015358	-0.007045	-0.645264	-0.187012	-0.341797	-0.176325	-0.279098	-0.007875	-0.943902
13341		5.151064	1.069421	8.249713	-0.000151	0.019203	-0.008604	-0.652588	-0.192627	-0.347412	-0.176422	-0.278841	-0.007891	-0.943960
13342		5.002713	1.116865	8.224956	-0.003520	0.028806	-0.008360	-0.663086	-0.196045	-0.343506	-0.176535	-0.278463	-0.007887	-0.944051
13343		4.997321	1.098898	8.244255	-0.004714	0.019972	-0.000236	-0.651855	-0.183594	-0.346436	-0.176590	-0.278208	-0.007796	-0.944116
13344		5.046515	1.047351	8.290755	0.002640	0.003836	-0.001954	-0.647461	-0.192871	-0.345215	-0.176573	-0.278136	-0.007796	-0.944141
13345		5.012128	1.108103	8.242363	0.010453	-0.000563	-0.006465	-0.649170	-0.180420	-0.347656	-0.176629	-0.278138	-0.007882	-0.944129
13346		4.968332	1.109025	8.234381	0.005292	-0.002748	0.003847	-0.653320	-0.190430	-0.341309	-0.176513	-0.278143	-0.007888	-0.944149
13347		5.001689	1.083605	8.281149	0.010620	-0.017253	0.003898	-0.658691	-0.186523	-0.341064	-0.176453	-0.278355	-0.007889	-0.944098
13348		5.076192	1.092059	8.261711	0.017358	-0.028850	0.000597	-0.655762	-0.191406	-0.353027	-0.176394	-0.278721	-0.007957	-0.944000
13349		5.065072	1.126034	8.238264	0.014479	-0.025007	0.003382	-0.652832	-0.191406	-0.348633	-0.176283	-0.279008	-0.008022	-0.943936
13350		5.042011	1.092809	8.237928	0.008925	-0.020435	0.008777	-0.646973	-0.183838	-0.351074	-0.176143	-0.279235	-0.008004	-0.943895
13351		5.056149	1.082775	8.258462	0.010924	-0.025106	0.010513	-0.648438	-0.184814	-0.348145	-0.175925	-0.279505	-0.008019	-0.943856
13352		5.077276	1.089051	8.282787	0.016554	-0.036410	0.004877	-0.657471	-0.190430	-0.345947	-0.175773	-0.279928	-0.008083	-0.943758
13353		5.106011	1.119462	8.225958	0.012944	-0.036328	0.004601	-0.656250	-0.192627	-0.338867	-0.175676	-0.280358	-0.008084	-0.943648
13354		5.156227	1.081166	8.242133	0.015204	-0.036157	0.005490	-0.651123	-0.185791	-0.340088	-0.175598	-0.280806	-0.008087	-0.943529
13355		5.149653	1.102794	8.211367	0.012458	-0.028170	0.003106	-0.646729	-0.188721	-0.340088	-0.175511	-0.281139	-0.008105	-0.943446
13356		5.086747	1.122336	8.226707	0.006954	-0.022836	0.004679	-0.653564	-0.181396	-0.336914	-0.175438	-0.281393	-0.008067	-0.943384
13357		5.146598	1.075125	8.236217	0.009646	-0.023453	0.002785	-0.656494	-0.194092	-0.348145	-0.175350	-0.281669	-0.008061	-0.943319
13358		5.159466	1.078107	8.221986	0.013735	-0.021168	-0.002485	-0.661621	-0.189697	-0.340576	-0.175332	-0.281910	-0.008141	-0.943249
13359		5.120885	1.124309	8.207567	0.007602	-0.013698	-0.003566	-0.646240	-0.193604	-0.334473	-0.175355	-0.282069	-0.008147	-0.943197
13360		5.150863	1.080609	8.198752	0.001744	-0.006590	-0.001614	-0.649658	-0.191406	-0.335938	-0.175422	-0.282133	-0.008083	-0.943166
13361		5.160428	1.088626	8.205957	0.004856	0.004402	-0.007084	-0.651123	-0.192383	-0.343750	-0.175521	-0.282072	-0.008105	-0.943166
13362		5.120454	1.125515	8.197631	0.003548	0.012602	-0.007207	-0.650635	-0.185303	-0.339111	-0.175592	-0.281893	-0.008154	-0.943206
13363		5.122059	1.121083	8.211231	-0.001373	0.015566	-0.004427	-0.644531	-0.191162	-0.340820	-0.175626	-0.281675	-0.008138	-0.943265
13364		5.123803	1.098177	8.240989	-0.001916	0.010453	-0.002055	-0.662109	-0.186279	-0.338135	-0.175663	-0.281512	-0.008097	-0.943307
13365		5.120816	1.095369	8.233200	0.000734	0.012001	-0.004352	-0.655273	-0.193848	-0.346436	-0.175711	-0.281359	-0.008074	-0.943344
13366		5.103754	1.112174	8.199564	-0.001813	0.016873	-0.006906	-0.651367	-0.186523	-0.341553	-0.175801	-0.281120	-0.008066	-0.943398
13367		5.099867	1.094216	8.218149	-0.007152	0.018342	-0.001673	-0.656006	-0.189941	-0.342041	-0.175824	-0.280856	-0.007980	-0.943473
13368		5.088690	1.095838	8.240688	-0.004231	0.014731	-0.003004	-0.656250	-0.193848	-0.343750	-0.175879	-0.280650	-0.007911	-0.943525
13369		5.124836	1.098921	8.228643	-0.001854	0.011323	-0.005152	-0.651855	-0.194824	-0.343262	-0.175972	-0.280488	-0.007867	-0.943556
13370		5.112658	1.092558	8.222831	-0.001602	0.013764	-0.007050	-0.650146	-0.191895	-0.344971	-0.176095	-0.280296	-0.007839	-0.943591
13371		5.106240	1.107235	8.240894	-0.006067	0.018454	-0.005290	-0.649658	-0.190918	-0.345947	-0.176180	-0.280030	-0.007777	-0.943654
13372		5.079897	1.104526	8.235166	-0.007988	0.018791	-0.006230	-0.652588	-0.187500	-0.340088	-0.176272	-0.279753	-0.007702	-0.943720
13373		5.075801	1.086091	8.253892	-0.005815	0.017976	-0.002965	-0.649414	-0.189453	-0.340576	-0.176332	-0.279510	-0.007615	-0.943781
13374		5.088447	1.069549	8.250425	-0.002890	0.017286	-0.008511	-0.655518	-0.183838	-0.347168	-0.176460	-0.279278	-0.007582	-0.943826
13375		5.059863	1.117478	8.227852	-0.005188	0.016360	-0.005568	-0.654541	-0.193359	-0.344482	-0.176485	-0.279037	-0.007539	-0.943893
13376		5.020937	1.084540	8.253146	-0.005983	0.014123	-0.004485	-0.657471	-0.194824	-0.347656	-0.176593	-0.278837	-0.007445	-0.943933
13377		5.062006	1.064660	8.268949	-0.000932	0.007066	-0.005033	-0.647949	-0.189209	-0.349854	-0.176687	-0.278729	-0.007400	-0.943948
13378		5.069645	1.086656	8.251788	0.001678	0.005463	-0.004542	-0.650391	-0.186279	-0.345459	-0.176698	-0.278620	-0.007419	-0.943977
13379		5.076514	1.088135	8.241574	0.000781	0.007442	-0.004968	-0.652832	-0.191650	-0.354492	-0.176726	-0.278501	-0.007415	-0.944008
13380		5.035151	1.082254	8.247037	-0.001788	0.009277	-0.004022	-0.651611	-0.188721	-0.343262	-0.176742	-0.278335	-0.007404	-0.944054
13381		5.042176	1.068580	8.262455	-0.000516	0.005641	-0.003268	-0.645508	-0.188477	-0.344482	-0.176792	-0.278247	-0.007355	-0.944070
13382		5.054293	1.064459	8.263721	0.002616	0.001320	-0.003721	-0.656006	-0.193604	-0.349365	-0.176824	-0.278205	-0.007350	-0.944077
13383		5.058503	1.095230	8.243539	0.000783	0.005043	-0.006007	-0.654297	-0.184570	-0.343506	-0.176910	-0.278120	-0.007331	-0.944086
13384		5.060777	1.086861	8.247224	-0.004318	0.011344	-0.001641	-0.654785	-0.189453	-0.346924	-0.176921	-0.277957	-0.007250	-0.944133
13385		5.023861	1.077393	8.274322	-0.005008	0.012609	-0.001184	-0.650879	-0.196045	-0.355225	-0.176951	-0.277773	-0.007163	-0.944182
13386		5.052606	1.079538	8.272941	-0.002208	0.005381	-0.002613	-0.648438	-0.193359	-0.345215	-0.176992	-0.277654	-0.007123	-0.944209
13387		5.046437	1.082011	8.252467	0.000736	0.004288	-0.002188	-0.649902	-0.192627	-0.345703	-0.177061	-0.277584	-0.007078	-0.944217
13388		5.041215	1.073055	8.266610	-0.001479	0.004348	-0.001634	-0.655029	-0.183350	-0.347656	-0.177123	-0.277508	-0.007007	-0.944229
13389		5.022381	1.065554	8.270760	-0.000437	0.006107	-0.000395	-0.646973	-0.188477	-0.341064	-0.177073	-0.277405	-0.006971	-0.944268
13390		5.017056	1.071322	8.259309	0.002864	0.000841	-0.001402	-0.650635	-0.181152	-0.351318	-0.177112	-0.277389	-0.006935	-0.944266
13391		5.048963	1.081222	8.274945	0.004580	-0.003580	-0.003421	-0.652344	-0.193359	-0.345703	-0.177031	-0.277389	-0.006979	-0.944281
13392		5.040106	1.075393	8.266982	0.001695	-0.002139	-0.001694	-0.660400	-0.189697	-0.344971	-0.177097	-0.277403	-0.006922	-0.944265
13393		5.035707	1.063709	8.271012	0.001714	-0.002022	-0.000976	-0.649170	-0.191895	-0.339600	-0.177132	-0.277427	-0.006855	-0.944252
13394		5.035970	1.061228	8.261209	0.002967	-0.005774	-0.000941	-0.661377	-0.181885	-0.349854	-0.177212	-0.277502	-0.006783	-0.944215
13395		5.045881	1.065969	8.258700	0.004434	-0.004918	-0.003191	-0.646484	-0.187500	-0.340088	-0.177156	-0.277540	-0.006794	-0.944215
13396		5.025776	1.071454	8.267935	0.005892	-0.006983	-0.001231	-0.649658	-0.187256	-0.350342	-0.177180	-0.277623	-0.006774	-0.944186
13397		5.026573	1.052018	8.273803	0.005243	-0.007883	-0.000382	-0.649414	-0.182129	-0.345947	-0.177121	-0.277682	-0.006790	-0.944179
13398		5.059743	1.076872	8.262938	0.007795	-0.009833	-0.002042	-0.655518	-0.191406	-0.341797	-0.177054	-0.277778	-0.006830	-0.944163
13399		5.052244	1.071878	8.254044	0.007627	-0.008888	-0.001487	-0.648926	-0.185303	-0.344238	-0.177106	-0.277901	-0.006812	-0.944118
13400		5.054388	1.076409	8.262115	0.005057	-0.007054	-0.000544	-0.655029	-0.187500	-0.349121	-0.177071	-0.277967	-0.006806	-0.944105
13401		5.033521	1.058083	8.268804	0.006791	-0.008960	-0.000801	-0.649170	-0.194092	-0.350342	-0.177023	-0.278052	-0.006826	-0.944089
13402		5.057820	1.079217	8.259648	0.006249	-0.008756	-0.001615	-0.651611	-0.180908	-0.352539	-0.177039	-0.278127	-0.006841	-0.944063
13403		5.051098	1.079902	8.269497	0.005057	-0.007054	-0.000541	-0.646240	-0.190430	-0.343262	-0.176895	-0.278157	-0.006888	-0.944081
13404		5.042137	1.068004	8.242457	0.004703	-0.007679	-0.001192	-0.651611	-0.187744	-0.349609	-0.176927	-0.278234	-0.006865	-0.944053
13405		5.046181	1.081827	8.278089	0.007670	-0.011053	-0.001086	-0.654541	-0.186768	-0.342285	-0.176873	-0.278336	-0.006902	-0.944032
13406		5.064932	1.084765	8.254561	0.007837	-0.009599	-0.000599	-0.653320	-0.188477	-0.348877	-0.176856	-0.278455	-0.006903	-0.944001
13407		5.084117	1.076154	8.266057	0.006249	-0.006356	-0.000573	-0.647705	-0.194580	-0.344971	-0.176812	-0.278504	-0.006925	-0.943994
13408		5.062681	1.075241	8.257038	0.003595	-0.002591	-0.001462	-0.650879	-0.193115	-0.341553	-0.176880	-0.278517	-0.006897	-0.943978
13409		5.066644	1.064443	8.250043	0.002571	-0.001834	-0.000942	-0.641113	-0.188721	-0.342529	-0.176957	-0.278536	-0.006838	-0.943958
13410		5.059131	1.085002	8.253934	0.001170	0.000580	-0.000752	-0.654053	-0.182373	-0.351074	-0.176973	-0.278496	-0.006805	-0.943967
13411		5.057773	1.061733	8.251691	0.002528	0.000332	-0.001339	-0.656250	-0.181885	-0.351074	-0.176861	-0.278441	-0.006832	-0.944004
13412		5.059430	1.089181	8.263184	0.001150	0.000463	-0.001469	-0.655029	-0.184326	-0.342285	-0.176754	-0.278385	-0.006840	-0.944041
13413		5.058149	1.066137	8.260867	0.003532	-0.000542	-0.002576	-0.652832	-0.195312	-0.345947	-0.176745	-0.278385	-0.006825	-0.944043
13414		5.037513	1.088776	8.254394	0.003116	-0.004436	-0.001162	-0.645020	-0.191406	-0.354492	-0.176820	-0.278426	-0.006778	-0.944017
13415		5.063617	1.059727	8.262366	0.005832	-0.004933	-0.002335	-0.643066	-0.180664	-0.352051	-0.176790	-0.278421	-0.006839	-0.944024
13416		5.061002	1.090052	8.252122	0.003261	-0.003099	-0.001394	-0.654785	-0.182129	-0.351807	-0.176650	-0.278380	-0.006896	-0.944061
13417		5.052205	1.084070	8.244174	0.003261	-0.003099	-0.001394	-0.643555	-0.187012	-0.347168	-0.176530	-0.278364	-0.006926	-0.944088
13418		5.065707	1.062482	8.260730	0.002614	-0.003999	-0.000543	-0.656738	-0.188721	-0.343262	-0.176505	-0.278365	-0.006918	-0.944093
13419		5.067455	1.069520	8.278703	0.003575	-0.002708	-0.002177	-0.656982	-0.187988	-0.339355	-0.176532	-0.278397	-0.006886	-0.944078
13420		5.059065	1.084355	8.263904	0.003198	-0.001051	-0.002508	-0.650635	-0.191895	-0.343750	-0.176581	-0.278425	-0.006836	-0.944061
13421		5.071905	1.077536	8.255091	0.004286	-0.003856	-0.001912	-0.648926	-0.189941	-0.341309	-0.176642	-0.278463	-0.006809	-0.944039
13422		5.053745	1.064805	8.239655	0.002739	-0.002779	-0.001491	-0.647217	-0.186768	-0.339111	-0.176698	-0.278489	-0.006761	-0.944021
13423		5.055658	1.074925	8.267104	0.002153	-0.000412	-0.002705	-0.650879	-0.184326	-0.348633	-0.176747	-0.278487	-0.006719	-0.944013
13424		5.064098	1.076371	8.255894	0.002864	-0.001560	-0.002441	-0.656250	-0.194580	-0.346191	-0.176687	-0.278460	-0.006736	-0.944032
13425		5.060096	1.068018	8.269305	0.002403	-0.000887	-0.000389	-0.659424	-0.184814	-0.347900	-0.176751	-0.278462	-0.006683	-0.944020
13426		5.060914	1.071864	8.278283	0.002510	-0.002186	-0.003090	-0.652100	-0.192871	-0.342041	-0.176708	-0.278463	-0.006678	-0.944027
13427		5.042568	1.076728	8.246785	0.004264	-0.001573	-0.001593	-0.654053	-0.187500	-0.344971	-0.176792	-0.278486	-0.006639	-0.944005
13428		5.061063	1.070834	8.268348	0.004453	-0.002401	-0.001427	-0.652344	-0.193115	-0.345459	-0.176780	-0.278501	-0.006634	-0.944003
13429		5.065335	1.060234	8.261155	0.002742	-0.005180	-0.002524	-0.646729	-0.183105	-0.348145	-0.176858	-0.278547	-0.006590	-0.943975
13430		5.072121	1.079640	8.274531	0.003953	-0.004364	-0.001843	-0.655029	-0.187012	-0.349854	-0.176771	-0.278546	-0.006623	-0.943992
13431		5.068354	1.085996	8.262006	0.003076	-0.004671	-0.002591	-0.657715	-0.189697	-0.343750	-0.176733	-0.278562	-0.006629	-0.943994
13432		5.059001	1.059609	8.261001	0.004955	-0.002838	-0.002044	-0.648682	-0.194092	-0.343506	-0.176762	-0.278599	-0.006610	-0.943978
13433		5.050724	1.074567	8.246094	0.003930	-0.002081	-0.001525	-0.659180	-0.195068	-0.350098	-0.176855	-0.278614	-0.006576	-0.943956
13434		5.064726	1.073963	8.255719	0.004663	-0.003111	-0.000543	-0.647705	-0.191895	-0.341553	-0.176890	-0.278634	-0.006560	-0.943944
13435		5.043538	1.076142	8.256156	0.004057	-0.003263	-0.003508	-0.651367	-0.182617	-0.347412	-0.176992	-0.278667	-0.006531	-0.943915
13436		5.062397	1.070348	8.277491	0.003954	-0.004364	-0.001841	-0.646484	-0.191895	-0.345947	-0.176895	-0.278676	-0.006558	-0.943931
13437		5.066326	1.074071	8.244741	0.002575	-0.004234	-0.001971	-0.657227	-0.191406	-0.346924	-0.176948	-0.278692	-0.006531	-0.943916
13438		5.071823	1.069430	8.255987	0.003160	-0.004199	0.000278	-0.653809	-0.191162	-0.347168	-0.176956	-0.278727	-0.006492	-0.943905
13439		5.067038	1.072383	8.234540	0.003029	-0.000105	-0.001957	-0.657715	-0.192383	-0.351807	-0.176985	-0.278704	-0.006478	-0.943906
13440		5.049294	1.065629	8.238069	0.001671	0.000143	-0.001370	-0.648926	-0.183105	-0.347900	-0.176991	-0.278662	-0.006460	-0.943917
13441		5.064805	1.077046	8.285130	0.001837	0.001598	-0.000888	-0.651611	-0.186279	-0.345459	-0.176890	-0.278589	-0.006478	-0.943958
13442		5.068325	1.083533	8.262244	0.001839	-0.000803	-0.001920	-0.657227	-0.186523	-0.344238	-0.176869	-0.278568	-0.006461	-0.943968
13443		5.066721	1.057329	8.250633	0.003783	-0.001016	-0.000258	-0.642822	-0.185059	-0.343750	-0.176835	-0.278573	-0.006442	-0.943973
13444		5.054136	1.063113	8.249448	0.003513	-0.003062	-0.004322	-0.645508	-0.186768	-0.342529	-0.176839	-0.278569	-0.006457	-0.943973
13445		5.051673	1.079122	8.264800	0.004956	-0.002837	-0.002042	-0.642578	-0.187500	-0.344727	-0.176845	-0.278582	-0.006463	-0.943968
13446		5.059938	1.060126	8.260303	0.002909	-0.003725	-0.002036	-0.650635	-0.180664	-0.343750	-0.176853	-0.278583	-0.006458	-0.943966
13447		5.057135	1.072768	8.266320	0.005710	-0.003748	-0.000343	-0.650635	-0.182129	-0.343750	-0.176729	-0.278603	-0.006491	-0.943984
13448		5.048921	1.070117	8.267595	0.003597	-0.002589	-0.001455	-0.654785	-0.182129	-0.347412	-0.176648	-0.278606	-0.006499	-0.943998
13449		5.049329	1.071035	8.267226	0.003408	-0.001761	-0.001622	-0.646729	-0.187744	-0.349365	-0.176537	-0.278589	-0.006523	-0.944024
13450		5.058623	1.075550	8.265048	0.001863	-0.003087	-0.002234	-0.656250	-0.189453	-0.348389	-0.176525	-0.278565	-0.006522	-0.944033
13451		5.072216	1.071576	8.265379	0.002909	-0.003725	-0.002035	-0.656738	-0.186768	-0.345459	-0.176523	-0.278582	-0.006507	-0.944028
13452		5.054868	1.082315	8.252444	0.000583	0.000544	-0.003001	-0.648926	-0.187012	-0.347900	-0.176520	-0.278554	-0.006473	-0.944037
13453		5.070893	1.066278	8.246917	0.000099	0.003501	-0.000638	-0.649902	-0.179443	-0.347900	-0.176491	-0.278460	-0.006453	-0.944070
13454		5.035326	1.054559	8.263811	-0.001323	0.003394	-0.002200	-0.645020	-0.187012	-0.346436	-0.176368	-0.278354	-0.006454	-0.944125
13455		5.053709	1.065734	8.269278	0.004124	-0.005309	-0.002386	-0.657959	-0.189941	-0.343750	-0.176374	-0.278375	-0.006461	-0.944118
13456		5.058868	1.076240	8.254826	0.006673	-0.004859	-0.003008	-0.651855	-0.183350	-0.346680	-0.176409	-0.278443	-0.006461	-0.944091
13457		5.067943	1.060764	8.259372	0.004834	-0.004055	-0.001088	-0.656494	-0.176758	-0.346924	-0.176317	-0.278457	-0.006487	-0.944104
13458		5.055947	1.066645	8.257815	0.004669	-0.005510	-0.001569	-0.646240	-0.185547	-0.345215	-0.176112	-0.278484	-0.006538	-0.944134
13459		5.052952	1.076138	8.254368	0.003834	-0.005581	-0.000883	-0.644775	-0.194092	-0.349121	-0.176088	-0.278512	-0.006534	-0.944130
13460		5.061838	1.056898	8.249542	0.003167	-0.006599	-0.000746	-0.647949	-0.184082	-0.338379	-0.176184	-0.278541	-0.006501	-0.944104
13461		5.068286	1.073092	8.253508	0.003623	-0.004872	-0.001766	-0.652588	-0.190674	-0.347412	-0.176182	-0.278598	-0.006471	-0.944088
13462		5.063544	1.075920	8.232029	0.001358	-0.000248	-0.000586	-0.653809	-0.184814	-0.340576	-0.176209	-0.278568	-0.006432	-0.944092
13463		5.055740	1.061243	8.268591	0.000312	0.000390	-0.000785	-0.649170	-0.183838	-0.354248	-0.176186	-0.278558	-0.006375	-0.944099
13464		5.072871	1.048501	8.271944	0.002906	-0.001323	-0.001004	-0.661865	-0.184570	-0.345947	-0.176067	-0.278486	-0.006424	-0.944142
13465		5.072532	1.063700	8.246196	0.002653	-0.000852	-0.003320	-0.656738	-0.189209	-0.346191	-0.176000	-0.278485	-0.006424	-0.944155
13466		5.065343	1.070198	8.275616	0.002004	0.000651	-0.001439	-0.657471	-0.182373	-0.351562	-0.176006	-0.278461	-0.006395	-0.944161
13467		5.050647	1.066131	8.247062	0.002717	-0.000495	-0.001172	-0.646484	-0.178711	-0.343994	-0.175857	-0.278411	-0.006430	-0.944204
13468		5.055112	1.058628	8.249358	0.004623	-0.003345	-0.001970	-0.653320	-0.179443	-0.345215	-0.175744	-0.278408	-0.006469	-0.944225
13469		5.055305	1.056736	8.239505	0.005337	-0.004492	-0.001702	-0.656738	-0.191406	-0.347900	-0.175599	-0.278431	-0.006513	-0.944245
13470		5.070351	1.059635	8.258016	0.004083	-0.005547	-0.003812	-0.649414	-0.187500	-0.356689	-0.175652	-0.278480	-0.006501	-0.944221
13471		5.053858	1.070737	8.244498	0.003502	-0.006089	-0.000811	-0.652344	-0.177734	-0.343994	-0.175598	-0.278459	-0.006533	-0.944237
13472		5.069665	1.076599	8.272139	0.005506	-0.005438	-0.002249	-0.654541	-0.179688	-0.341309	-0.175439	-0.278494	-0.006583	-0.944256
13473		5.061305	1.071000	8.263927	0.004126	-0.005309	-0.002379	-0.648193	-0.187744	-0.340088	-0.175320	-0.278548	-0.006595	-0.944262
13474		5.083429	1.068128	8.252974	0.005671	-0.003982	-0.001769	-0.649658	-0.193604	-0.338135	-0.175368	-0.278597	-0.006581	-0.944239
13475		5.066452	1.062222	8.255994	0.005394	-0.003631	-0.004801	-0.658203	-0.184082	-0.347656	-0.175551	-0.278666	-0.006539	-0.944185
13476		5.050517	1.079963	8.261236	0.003556	-0.002826	-0.002883	-0.650635	-0.186035	-0.345703	-0.175461	-0.278669	-0.006561	-0.944200
13477		5.067801	1.064892	8.254822	0.005507	-0.005437	-0.002247	-0.657715	-0.182617	-0.351074	-0.175442	-0.278704	-0.006579	-0.944193
13478		5.052576	1.082752	8.259612	0.006389	-0.007530	-0.002525	-0.653076	-0.184570	-0.339600	-0.175298	-0.278744	-0.006647	-0.944208
13479		5.092092	1.067095	8.251852	0.005797	-0.005167	-0.003746	-0.652100	-0.183350	-0.345459	-0.175283	-0.278813	-0.006656	-0.944190
13480		5.061990	1.062425	8.244651	0.003504	-0.006088	-0.000806	-0.651855	-0.187988	-0.344238	-0.175201	-0.278849	-0.006658	-0.944195
13481		5.077633	1.068132	8.272413	0.003768	-0.003535	-0.001997	-0.658936	-0.179688	-0.343262	-0.175219	-0.278871	-0.006645	-0.944185
13482		5.072750	1.071342	8.250947	0.004053	-0.000862	-0.002473	-0.647461	-0.194092	-0.345459	-0.175055	-0.278867	-0.006682	-0.944216
13483		5.068906	1.063535	8.264312	0.004412	-0.002636	-0.002850	-0.648193	-0.186279	-0.338867	-0.175212	-0.278874	-0.006654	-0.944185
13484		5.086135	1.065880	8.241599	0.003582	-0.005110	-0.003189	-0.648682	-0.187988	-0.345459	-0.175262	-0.278932	-0.006623	-0.944159
13485		5.078300	1.063555	8.242641	0.006343	-0.005365	-0.002928	-0.655518	-0.183350	-0.348633	-0.175296	-0.278965	-0.006645	-0.944143
13486		5.071061	1.064533	8.252877	0.004963	-0.005238	-0.003058	-0.648682	-0.191650	-0.339111	-0.175195	-0.278982	-0.006691	-0.944156
13487		5.072167	1.065868	8.252026	0.004297	-0.006255	-0.002919	-0.651611	-0.186035	-0.348145	-0.175328	-0.279065	-0.006640	-0.944107
13488		5.068211	1.054589	8.255939	0.002051	-0.001513	-0.001032	-0.652588	-0.184570	-0.346191	-0.175286	-0.279029	-0.006637	-0.944126
13489		5.077241	1.059179	8.253863	0.004053	-0.000861	-0.002472	-0.652832	-0.185059	-0.357422	-0.175231	-0.279001	-0.006663	-0.944144
13490		5.073310	1.068740	8.250951	0.004266	-0.001569	-0.001587	-0.651855	-0.185059	-0.340820	-0.175124	-0.278918	-0.006734	-0.944188
13491		5.068453	1.054519	8.245819	0.004080	-0.003145	-0.002779	-0.654541	-0.186279	-0.352051	-0.175109	-0.278948	-0.006729	-0.944182
13492		5.073907	1.067956	8.240699	0.004440	-0.004919	-0.003155	-0.651611	-0.189941	-0.342285	-0.175056	-0.278943	-0.006770	-0.944193
13493		5.075736	1.075513	8.258568	0.003911	-0.002198	-0.002233	-0.649902	-0.188721	-0.337891	-0.175121	-0.278962	-0.006743	-0.944175
13494		5.075424	1.073369	8.249050	0.003196	-0.001052	-0.002502	-0.653076	-0.187012	-0.343750	-0.175199	-0.278986	-0.006699	-0.944154
13495		5.062476	1.078857	8.248140	0.001101	0.000221	-0.002901	-0.648926	-0.179199	-0.344971	-0.175210	-0.278959	-0.006671	-0.944160
13496		5.079296	1.066208	8.251693	0.001309	0.001916	-0.000994	-0.654297	-0.190918	-0.342529	-0.175075	-0.278879	-0.006688	-0.944209
13497		5.065297	1.068385	8.241872	0.002978	0.002059	-0.002365	-0.645020	-0.184082	-0.339844	-0.175144	-0.278854	-0.006658	-0.944204
13498		5.065692	1.055239	8.267438	0.004910	-0.000670	-0.002441	-0.647461	-0.185791	-0.351318	-0.175156	-0.278845	-0.006665	-0.944204
13499		5.078814	1.069228	8.251600	0.004244	-0.001688	-0.002301	-0.653809	-0.190674	-0.342773	-0.175135	-0.278787	-0.006704	-0.944225
13500		5.070326	1.066615	8.253095	0.003912	-0.002197	-0.002231	-0.649658	-0.183838	-0.346436	-0.175198	-0.278812	-0.006676	-0.944206
13501		5.067130	1.079501	8.259273	0.005625	-0.001815	-0.002170	-0.647705	-0.185547	-0.349854	-0.175136	-0.278790	-0.006721	-0.944224
13502		5.082884	1.058036	8.234679	0.003579	-0.002707	-0.002161	-0.644775	-0.189209	-0.333740	-0.175114	-0.278751	-0.006744	-0.944239
13503		5.058891	1.078228	8.260443	0.005575	0.000348	-0.002580	-0.657227	-0.177979	-0.343262	-0.175252	-0.278779	-0.006707	-0.944206
13504		5.070704	1.068214	8.242671	0.002384	-0.001003	-0.001100	-0.656738	-0.185791	-0.343506	-0.175032	-0.278765	-0.006736	-0.944250
13505		5.074316	1.057513	8.235960	0.003840	-0.000154	-0.003355	-0.657471	-0.189941	-0.343262	-0.174989	-0.278759	-0.006748	-0.944260
13506		5.062542	1.069679	8.253427	0.004098	-0.000621	-0.001039	-0.645020	-0.188721	-0.342041	-0.174993	-0.278770	-0.006731	-0.944256
13507		5.076181	1.069104	8.263265	0.002673	-0.000734	-0.002600	-0.648193	-0.185303	-0.347656	-0.175096	-0.278753	-0.006696	-0.944242
13508		5.076009	1.070007	8.263254	0.003524	0.001861	-0.001549	-0.653809	-0.187988	-0.349609	-0.175068	-0.278675	-0.006718	-0.944270
13509		5.066362	1.063923	8.255934	0.001603	-0.000219	-0.003515	-0.647705	-0.186523	-0.348877	-0.175075	-0.278625	-0.006715	-0.944284
13510		5.074413	1.065240	8.244886	0.001767	0.001238	-0.003040	-0.649170	-0.197998	-0.341309	-0.175094	-0.278546	-0.006718	-0.944304
13511		5.062022	1.073950	8.253191	0.003411	-0.001759	-0.001614	-0.648438	-0.195801	-0.342529	-0.175344	-0.278579	-0.006628	-0.944248
13512		5.065849	1.063619	8.246308	0.005915	-0.001546	-0.003668	-0.654053	-0.187744	-0.351807	-0.175564	-0.278601	-0.006594	-0.944201
13513		5.053829	1.055601	8.270712	0.005294	-0.002323	-0.002097	-0.648193	-0.185547	-0.343750	-0.175516	-0.278572	-0.006639	-0.944218
13514		5.049175	1.059289	8.249019	0.007538	-0.004662	-0.002955	-0.651611	-0.188721	-0.343750	-0.175503	-0.278604	-0.006683	-0.944211
13515		5.077965	1.078614	8.260933	0.005897	-0.007088	-0.001889	-0.648926	-0.185547	-0.344727	-0.175529	-0.278677	-0.006680	-0.944184
13516		5.073406	1.061483	8.246060	0.005160	-0.006064	-0.002874	-0.655273	-0.190674	-0.348145	-0.175511	-0.278715	-0.006699	-0.944176
13517		5.083911	1.069897	8.252540	0.006393	-0.005122	-0.001484	-0.647705	-0.188477	-0.347168	-0.175524	-0.278751	-0.006715	-0.944163
13518		5.070526	1.069438	8.232695	0.003581	-0.002706	-0.002156	-0.655273	-0.181641	-0.340332	-0.175558	-0.278734	-0.006713	-0.944162
13519		5.077049	1.088962	8.246041	0.004008	-0.004119	-0.000385	-0.654053	-0.183594	-0.336426	-0.175416	-0.278781	-0.006720	-0.944174
13520		5.078349	1.075526	8.271154	0.002222	-0.002460	-0.001572	-0.650879	-0.190674	-0.345703	-0.175363	-0.278830	-0.006684	-0.944170
13521		5.073206	1.057757	8.256734	0.003632	-0.004869	-0.001744	-0.651611	-0.184082	-0.348877	-0.175430	-0.278859	-0.006657	-0.944149
13522		5.073953	1.058619	8.256165	0.002746	-0.002777	-0.001471	-0.648926	-0.190186	-0.349609	-0.175335	-0.278829	-0.006679	-0.944175
13523		5.073833	1.056159	8.246573	0.001653	-0.002383	-0.003102	-0.654297	-0.182861	-0.345703	-0.175410	-0.278795	-0.006658	-0.944172
13524		5.074430	1.057002	8.246098	0.003440	-0.004042	-0.001914	-0.650635	-0.184814	-0.350098	-0.175291	-0.278806	-0.006681	-0.944191
13525		5.067161	1.060528	8.266045	0.001602	-0.000221	-0.003514	-0.655273	-0.187012	-0.345947	-0.175243	-0.278736	-0.006701	-0.944220
13526		5.079533	1.053210	8.257566	0.001359	-0.000247	-0.000584	-0.654541	-0.177490	-0.343262	-0.175198	-0.278708	-0.006678	-0.944237
13527		5.088180	1.057330	8.255752	-0.001042	0.001246	-0.004731	-0.652344	-0.177734	-0.347656	-0.175022	-0.278652	-0.006693	-0.944286
13528		5.076102	1.068819	8.273494	0.000598	0.000656	-0.002285	-0.653809	-0.184570	-0.340576	-0.174818	-0.278575	-0.006731	-0.944346
13529		5.070360	1.071138	8.252627	-0.000288	0.002748	-0.002013	-0.650879	-0.180420	-0.348877	-0.174776	-0.278534	-0.006692	-0.944366
13530		5.060806	1.047237	8.261785	0.002363	-0.001123	-0.001813	-0.653320	-0.191162	-0.338623	-0.174632	-0.278478	-0.006729	-0.944409
13531		5.060693	1.065459	8.245287	0.002267	0.000798	-0.003655	-0.650146	-0.183838	-0.344482	-0.174750	-0.278492	-0.006673	-0.944384
13532		5.087477	1.080856	8.248914	0.002267	0.000798	-0.003655	-0.653320	-0.189941	-0.338379	-0.174723	-0.278445	-0.006680	-0.944402
13533		5.068974	1.053624	8.259976	0.002097	0.001746	-0.003111	-0.652832	-0.187012	-0.355957	-0.174809	-0.278446	-0.006630	-0.944386
13534		5.071775	1.060363	8.237321	0.002879	0.003980	-0.004208	-0.651123	-0.183838	-0.346680	-0.174792	-0.278307	-0.006679	-0.944430
13535		5.067866	1.058757	8.269975	0.001875	0.004856	-0.002980	-0.651855	-0.183350	-0.343262	-0.174740	-0.278203	-0.006697	-0.944470
13536		5.052931	1.060948	8.260718	0.000752	0.007533	-0.004308	-0.649414	-0.188965	-0.348633	-0.174701	-0.278087	-0.006704	-0.944512
13537		5.039129	1.069202	8.269932	-0.000843	0.005349	-0.001812	-0.647461	-0.187500	-0.349609	-0.174767	-0.277968	-0.006658	-0.944535
13538		5.046167	1.049815	8.266411	0.003627	0.000552	-0.004236	-0.654541	-0.183838	-0.349121	-0.174830	-0.277902	-0.006672	-0.944543
13539		5.038336	1.071254	8.270150	0.004322	-0.000713	-0.004679	-0.654053	-0.187744	-0.348877	-0.174750	-0.277866	-0.006725	-0.944567
13540		5.064504	1.045729	8.287949	0.002867	-0.001561	-0.002425	-0.662109	-0.184814	-0.337646	-0.174740	-0.277846	-0.006724	-0.944575
13541		5.056025	1.060407	8.273004	0.004086	-0.003143	-0.002766	-0.648438	-0.184814	-0.342773	-0.174622	-0.277931	-0.006725	-0.944572
13542		5.055382	1.055213	8.254120	0.004418	-0.002633	-0.002836	-0.656738	-0.191650	-0.348389	-0.174618	-0.277943	-0.006732	-0.944569
13543		5.056327	1.059775	8.262928	0.005082	-0.001614	-0.002977	-0.657227	-0.187256	-0.339844	-0.174665	-0.277946	-0.006737	-0.944559
13544		5.064250	1.058443	8.242311	0.004226	-0.001807	-0.003007	-0.650879	-0.189941	-0.343018	-0.174638	-0.277994	-0.006732	-0.944551
13545		5.052011	1.050209	8.266939	0.004173	0.000356	-0.003420	-0.652588	-0.191650	-0.341309	-0.174725	-0.277985	-0.006717	-0.944537
13546		5.052588	1.054563	8.276000	0.003199	-0.001051	-0.002494	-0.651611	-0.187988	-0.349609	-0.174829	-0.278010	-0.006671	-0.944511
13547		5.065748	1.050889	8.276570	0.003746	-0.001247	-0.001678	-0.658203	-0.184326	-0.354248	-0.174828	-0.277976	-0.006678	-0.944521
13548		5.052806	1.073942	8.259115	0.003531	-0.000542	-0.002564	-0.657715	-0.180664	-0.344971	-0.174686	-0.277914	-0.006735	-0.944565
13549		5.056277	1.063296	8.252534	0.002267	0.000798	-0.003652	-0.649902	-0.193359	-0.340088	-0.174514	-0.277883	-0.006773	-0.944606
13550		5.057036	1.070654	8.271066	0.002429	0.002255	-0.003180	-0.654053	-0.187744	-0.347656	-0.174691	-0.277871	-0.006710	-0.944577
13551		5.038206	1.060714	8.265889	0.001379	0.002889	-0.003382	-0.652588	-0.188232	-0.339111	-0.174696	-0.277802	-0.006702	-0.944596
13552		5.063262	1.049071	8.258391	0.003532	-0.000541	-0.002563	-0.649170	-0.187744	-0.342773	-0.174730	-0.277830	-0.006676	-0.944582
13553		5.038649	1.066106	8.274895	0.005608	-0.001930	-0.002873	-0.661133	-0.186279	-0.348145	-0.174774	-0.277845	-0.006682	-0.944570
13554		5.063773	1.051660	8.257747	0.003371	-0.001999	-0.003035	-0.645996	-0.186768	-0.343506	-0.174668	-0.277851	-0.006706	-0.944587
13555		5.042409	1.053680	8.258408	0.004988	-0.002706	-0.001303	-0.646240	-0.192627	-0.345459	-0.174703	-0.277859	-0.006702	-0.944578
13556		5.053137	1.065029	8.274325	0.005064	-0.004747	-0.000174	-0.651855	-0.185303	-0.343994	-0.174842	-0.277892	-0.006661	-0.944543
13557		5.062159	1.066569	8.262633	0.003253	-0.003213	-0.002077	-0.648682	-0.186035	-0.349365	-0.174802	-0.277911	-0.006657	-0.944545
13558		5.049910	1.054924	8.277761	0.004635	-0.003337	-0.001946	-0.655518	-0.187988	-0.341797	-0.174787	-0.277894	-0.006678	-0.944553
13559		5.054023	1.061847	8.254251	0.004635	-0.003337	-0.001945	-0.653809	-0.182861	-0.354004	-0.174772	-0.277946	-0.006671	-0.944540
13560		5.059329	1.058166	8.265608	0.006636	-0.002685	-0.003383	-0.651123	-0.182373	-0.345215	-0.174638	-0.277904	-0.006765	-0.944577
13561		5.060378	1.062891	8.274329	0.004442	-0.002511	-0.002117	-0.646484	-0.185547	-0.345459	-0.174535	-0.277901	-0.006798	-0.944596
13562		5.064534	1.052357	8.267332	0.003779	-0.003530	-0.001975	-0.656250	-0.181885	-0.341553	-0.174548	-0.277902	-0.006794	-0.944594
13563		5.048249	1.049227	8.279694	0.004806	-0.004285	-0.002486	-0.651855	-0.185791	-0.348633	-0.174396	-0.277955	-0.006829	-0.944606
13564		5.052426	1.056318	8.256111	0.005470	-0.003266	-0.002627	-0.648926	-0.191895	-0.341064	-0.174358	-0.277950	-0.006865	-0.944614
13565		5.062420	1.064735	8.262871	0.004044	-0.003386	-0.004187	-0.646729	-0.177734	-0.352295	-0.174518	-0.277996	-0.006824	-0.944571
13566		5.053980	1.062137	8.264384	0.003199	-0.001051	-0.002491	-0.652344	-0.184326	-0.350098	-0.174352	-0.277907	-0.006891	-0.944628
13567		5.037639	1.079277	8.269831	0.003459	-0.001512	-0.000176	-0.650635	-0.182861	-0.340332	-0.174251	-0.277867	-0.006912	-0.944658
13568		5.061803	1.040710	8.250749	0.004968	-0.002827	-0.002014	-0.651367	-0.190186	-0.354980	-0.174170	-0.277899	-0.006933	-0.944663
13569		5.056032	1.089129	8.265270	0.004559	-0.001297	-0.003073	-0.651367	-0.190186	-0.345947	-0.174233	-0.277838	-0.006952	-0.944670
13570		5.037712	1.058897	8.266793	0.003608	-0.002582	-0.001431	-0.650146	-0.187012	-0.352295	-0.174293	-0.277846	-0.006926	-0.944656
13571		5.064155	1.068204	8.251386	0.005095	-0.004019	-0.003982	-0.655762	-0.183105	-0.355957	-0.174310	-0.277826	-0.006960	-0.944659
13572		5.056630	1.069228	8.261848	0.004548	-0.003825	-0.004797	-0.651855	-0.191406	-0.346680	-0.174185	-0.277786	-0.007036	-0.944693
13573		5.052580	1.057982	8.265969	0.001415	-0.002407	-0.000165	-0.649170	-0.188965	-0.351807	-0.174259	-0.277787	-0.006975	-0.944680
13574		5.070659	1.048836	8.278380	0.003200	-0.001051	-0.002490	-0.657471	-0.183838	-0.345215	-0.174320	-0.277732	-0.006971	-0.944684
13575		5.048283	1.064760	8.253582	0.003200	-0.001051	-0.002490	-0.648926	-0.190918	-0.349854	-0.174190	-0.277729	-0.006998	-0.944709
13576		5.061943	1.064254	8.263410	0.002149	-0.000419	-0.002693	-0.657959	-0.190430	-0.346436	-0.174309	-0.277680	-0.006964	-0.944702
13577		5.048985	1.069803	8.262473	0.003531	-0.000542	-0.002561	-0.650391	-0.181885	-0.347412	-0.174320	-0.277680	-0.006956	-0.944700
13578		5.030850	1.060019	8.256909	0.002652	-0.000857	-0.003305	-0.652832	-0.181396	-0.341064	-0.174226	-0.277638	-0.006985	-0.944729
13579		5.067954	1.068350	8.293293	0.001978	0.000530	-0.002152	-0.652100	-0.187500	-0.348877	-0.174095	-0.277623	-0.006996	-0.944758
13580		5.062466	1.053725	8.288769	0.001170	0.001183	-0.005282	-0.656738	-0.186035	-0.349365	-0.174139	-0.277561	-0.006988	-0.944768
13581		5.047953	1.052817	8.269674	0.003144	0.001111	-0.002907	-0.650146	-0.181885	-0.350586	-0.174063	-0.277511	-0.007015	-0.944797
13582		5.061208	1.069711	8.263155	0.003029	-0.000103	-0.001948	-0.651367	-0.190674	-0.347656	-0.173956	-0.277443	-0.007051	-0.944836
13583		5.029409	1.061240	8.247663	0.002984	-0.000347	-0.003376	-0.655762	-0.186523	-0.339844	-0.174052	-0.277417	-0.007028	-0.944826
13584		5.042175	1.037021	8.255521	0.003063	-0.002387	-0.002244	-0.654053	-0.185791	-0.352051	-0.173999	-0.277466	-0.007016	-0.944822
13585		5.056746	1.057281	8.257727	0.003737	-0.003774	-0.003396	-0.655273	-0.187256	-0.352539	-0.173949	-0.277452	-0.007044	-0.944835
13586		5.045046	1.066447	8.265520	0.005142	-0.003774	-0.002550	-0.649902	-0.183350	-0.345703	-0.173904	-0.277444	-0.007079	-0.944845
13587		5.059997	1.069509	8.284071	0.003998	-0.004232	-0.001081	-0.653320	-0.190430	-0.340820	-0.173825	-0.277460	-0.007091	-0.944855
13588		5.050737	1.060129	8.267039	0.003279	-0.003090	-0.001356	-0.651367	-0.186279	-0.352295	-0.173872	-0.277512	-0.007051	-0.944831
13589		5.051401	1.061332	8.266479	0.005097	-0.004019	-0.003976	-0.645752	-0.187012	-0.344482	-0.173869	-0.277496	-0.007086	-0.944836
13590		5.051493	1.059153	8.256735	0.003894	-0.002916	0.001600	-0.646729	-0.185303	-0.348145	-0.173890	-0.277500	-0.007054	-0.944831
13591		5.048574	1.054207	8.279324	0.002537	-0.002071	-0.002344	-0.655273	-0.180176	-0.348389	-0.173910	-0.277467	-0.007044	-0.944837
13592		5.052937	1.064029	8.265194	0.003394	-0.001877	-0.002314	-0.651855	-0.191406	-0.342041	-0.173712	-0.277444	-0.007099	-0.944880
13593		5.061507	1.065632	8.253736	0.003897	-0.002316	-0.002925	-0.647949	-0.184814	-0.350342	-0.173818	-0.277479	-0.007064	-0.944851
13594		5.044324	1.059120	8.257167	0.003063	-0.002387	-0.002242	-0.660889	-0.195557	-0.348389	-0.173810	-0.277440	-0.007070	-0.944864
13595		5.059449	1.065237	8.285186	0.002846	-0.001684	-0.003129	-0.652344	-0.190918	-0.345215	-0.173906	-0.277458	-0.007034	-0.944841
13596		5.054449	1.068106	8.263743	0.003589	-0.002703	-0.002140	-0.654053	-0.183594	-0.350830	-0.173985	-0.277479	-0.007003	-0.944821
13597		5.048973	1.050353	8.249678	0.001773	-0.001175	-0.004046	-0.653564	-0.196045	-0.344971	-0.173901	-0.277432	-0.007027	-0.944849
13598		5.042858	1.060698	8.288010	0.004423	-0.002631	-0.002823	-0.649658	-0.187744	-0.340820	-0.174087	-0.277468	-0.006978	-0.944805
13599		5.060322	1.066183	8.274562	0.004468	-0.002385	-0.001396	-0.656982	-0.182373	-0.338867	-0.174115	-0.277500	-0.006961	-0.944791
13600		5.051726	1.063296	8.276239	0.001624	-0.000103	-0.002793	-0.648682	-0.189941	-0.350342	-0.173974	-0.277517	-0.006967	-0.944812
13601		5.041049	1.050579	8.250547	0.003337	0.000285	-0.002733	-0.652588	-0.181152	-0.339844	-0.174071	-0.277459	-0.006953	-0.944811
13602		5.033646	1.054529	8.270554	0.004949	-0.002947	-0.002719	-0.648926	-0.192139	-0.347168	-0.173935	-0.277498	-0.006992	-0.944824
13603		5.061242	1.070648	8.273423	0.005978	-0.003701	-0.003228	-0.651123	-0.188965	-0.348389	-0.174079	-0.277517	-0.006982	-0.944792
13604		5.055411	1.049950	8.250000	0.003064	-0.002386	-0.002240	-0.645996	-0.186523	-0.350586	-0.174123	-0.277505	-0.006966	-0.944788
13605		5.048664	1.074408	8.262510	0.005851	-0.002506	-0.001262	-0.647949	-0.180908	-0.343994	-0.174142	-0.277470	-0.006989	-0.944794
13606		5.053582	1.049878	8.281293	0.002710	-0.003020	-0.002880	-0.649658	-0.188232	-0.353271	-0.174050	-0.277468	-0.007005	-0.944812
13607		5.058777	1.063200	8.276144	0.004596	-0.003580	-0.003359	-0.648438	-0.187012	-0.348145	-0.174096	-0.277440	-0.007020	-0.944811
13608		5.046276	1.069072	8.274884	0.003350	-0.002123	-0.003737	-0.650879	-0.187256	-0.342773	-0.174141	-0.277417	-0.007019	-0.944810
13609		5.050542	1.041223	8.284540	0.004138	-0.002894	-0.001321	-0.658203	-0.188232	-0.345215	-0.174141	-0.277443	-0.007009	-0.944802
13610		5.050059	1.056225	8.258495	0.002652	-0.000859	-0.003301	-0.647461	-0.190918	-0.345947	-0.174113	-0.277448	-0.007006	-0.944806
13611		5.042367	1.077197	8.262051	0.003223	-0.000928	-0.001772	-0.645996	-0.182373	-0.346924	-0.174238	-0.277429	-0.006966	-0.944789
13612		5.047072	1.052393	8.281023	0.003087	-0.002263	-0.001525	-0.656250	-0.187744	-0.347168	-0.174173	-0.277399	-0.006978	-0.944809
13613		5.061488	1.072543	8.283251	0.003042	-0.002510	-0.002951	-0.651855	-0.186768	-0.348389	-0.174147	-0.277407	-0.006979	-0.944812
13614		5.082011	1.045484	8.270819	0.002366	-0.001122	-0.001802	-0.648682	-0.185303	-0.346191	-0.174129	-0.277377	-0.006972	-0.944824
13615		5.030176	1.064632	8.267455	0.003246	-0.000804	-0.001059	-0.651367	-0.189209	-0.348389	-0.174103	-0.277348	-0.006970	-0.944837
13616		5.048009	1.055807	8.280018	0.002457	-0.000033	-0.003475	-0.640869	-0.193359	-0.352051	-0.174168	-0.277309	-0.006953	-0.944837
13617		5.065008	1.061458	8.266801	0.006251	-0.001029	-0.003719	-0.656006	-0.185303	-0.343994	-0.174422	-0.277251	-0.006939	-0.944807
13618		5.051876	1.067657	8.265883	0.004832	0.001376	-0.003560	-0.654541	-0.193604	-0.343506	-0.174349	-0.277232	-0.006979	-0.944826
13619		5.050567	1.045142	8.264114	0.003096	0.000863	-0.004332	-0.656006	-0.185059	-0.350830	-0.174500	-0.277230	-0.006940	-0.944799
13620		5.033532	1.062704	8.269865	0.004637	0.002201	-0.003735	-0.656006	-0.190918	-0.350586	-0.174407	-0.277159	-0.006999	-0.944836
13621		5.055413	1.066530	8.278047	0.002879	0.001565	-0.005220	-0.650391	-0.183838	-0.344238	-0.174475	-0.277106	-0.007001	-0.944840
13622		5.045000	1.057130	8.261759	0.002683	0.001796	-0.000870	-0.652588	-0.183105	-0.345459	-0.174392	-0.277060	-0.007008	-0.944868
13623		5.057835	1.056885	8.272066	0.003481	0.004746	-0.005787	-0.658691	-0.188477	-0.342285	-0.174324	-0.276978	-0.007060	-0.944905
13624		5.064997	1.058680	8.261429	0.002865	0.003973	-0.004216	-0.645508	-0.182861	-0.345703	-0.174308	-0.276948	-0.007067	-0.944916
13625		5.038762	1.072225	8.269366	0.002181	0.002829	-0.004784	-0.649902	-0.185791	-0.347656	-0.174298	-0.276868	-0.007083	-0.944941
13626		5.038562	1.076035	8.278957	-0.000998	0.004003	-0.001588	-0.657715	-0.185059	-0.346680	-0.174280	-0.276772	-0.007047	-0.944973
13627		5.049533	1.047853	8.278595	0.000280	0.005796	-0.003303	-0.649658	-0.197021	-0.341064	-0.174183	-0.276683	-0.007055	-0.945017
13628		5.035701	1.056318	8.287754	0.001820	0.007135	-0.002705	-0.655518	-0.188721	-0.348145	-0.174436	-0.276617	-0.006975	-0.944990
13629		5.034050	1.074429	8.271950	0.001048	0.005497	-0.006123	-0.652344	-0.185547	-0.356445	-0.174473	-0.276528	-0.006975	-0.945009
13630		5.032378	1.054436	8.280061	-0.001080	0.006040	-0.002723	-0.660645	-0.190918	-0.348633	-0.174421	-0.276366	-0.006973	-0.945066
13631		5.022993	1.054322	8.291824	0.000980	0.004532	-0.003737	-0.647461	-0.185303	-0.343750	-0.174427	-0.276304	-0.006959	-0.945084
13632		5.038850	1.059159	8.279433	-0.000598	0.005477	-0.004045	-0.643799	-0.187744	-0.349609	-0.174455	-0.276213	-0.006928	-0.945105
13633		5.032860	1.047353	8.284898	-0.000989	0.007128	-0.004394	-0.656494	-0.182861	-0.343262	-0.174571	-0.276064	-0.006886	-0.945128
13634		5.018889	1.055744	8.294128	0.000920	0.006693	-0.004157	-0.654053	-0.192871	-0.346436	-0.174449	-0.275986	-0.006909	-0.945173
13635		5.012968	1.044338	8.299496	0.000741	0.005111	-0.005335	-0.652832	-0.187500	-0.345703	-0.174584	-0.275920	-0.006868	-0.945167
13636		5.028240	1.046328	8.277890	0.002672	0.004800	-0.004385	-0.649902	-0.184814	-0.345215	-0.174594	-0.275854	-0.006877	-0.945185
13637		5.022961	1.056022	8.275630	0.003111	0.003990	-0.007132	-0.647217	-0.182861	-0.341797	-0.174605	-0.275790	-0.006908	-0.945201
13638		5.018489	1.051576	8.299123	0.001858	0.004852	-0.002991	-0.645996	-0.191650	-0.344727	-0.174557	-0.275723	-0.006913	-0.945230
13639		5.017681	1.073086	8.292311	0.001555	0.005058	-0.006727	-0.652832	-0.189453	-0.346191	-0.174758	-0.275649	-0.006875	-0.945214
13640		4.989823	1.059360	8.289299	0.001897	0.002568	-0.003281	-0.650391	-0.194092	-0.351807	-0.174794	-0.275611	-0.006855	-0.945219
13641		5.024203	1.055043	8.289176	0.003650	0.000674	-0.003509	-0.653809	-0.180420	-0.345215	-0.174944	-0.275570	-0.006831	-0.945203
13642		5.018671	1.058069	8.268028	0.003276	-0.000084	-0.004862	-0.654541	-0.182129	-0.347656	-0.174788	-0.275559	-0.006883	-0.945235
13643		5.028352	1.069567	8.284475	0.002619	0.001428	-0.003002	-0.655762	-0.185303	-0.346436	-0.174638	-0.275519	-0.006921	-0.945274
13644		5.009233	1.056232	8.270082	0.002093	0.001742	-0.003105	-0.655762	-0.182861	-0.350342	-0.174547	-0.275491	-0.006935	-0.945299
13645		4.988106	1.043529	8.296921	0.000153	-0.001073	-0.001250	-0.656250	-0.181152	-0.342773	-0.174385	-0.275465	-0.006935	-0.945336
13646		5.015613	1.059183	8.299894	0.005833	-0.005153	-0.003676	-0.655518	-0.181396	-0.351318	-0.174197	-0.275541	-0.007001	-0.945348
13647		5.024175	1.057762	8.278905	0.003989	-0.004348	-0.001777	-0.652344	-0.194824	-0.352539	-0.174002	-0.275553	-0.007050	-0.945380
13648		5.016371	1.037527	8.296840	0.002453	-0.003156	-0.000661	-0.653564	-0.184814	-0.350586	-0.174112	-0.275557	-0.006997	-0.945359
13649		4.999075	1.047641	8.283722	0.001753	-0.001893	-0.000227	-0.646729	-0.188721	-0.350830	-0.174001	-0.275541	-0.006994	-0.945385
13650		5.003911	1.057218	8.269286	0.004050	-0.006509	-0.001353	-0.651367	-0.186279	-0.342773	-0.174059	-0.275574	-0.006970	-0.945365
13651		5.032810	1.038801	8.304796	0.006639	-0.008329	-0.002261	-0.648926	-0.177490	-0.357178	-0.174013	-0.275685	-0.006992	-0.945340
13652		5.020452	1.058757	8.277137	0.004886	-0.006437	-0.002033	-0.658936	-0.187012	-0.355469	-0.173823	-0.275667	-0.007060	-0.945380
13653		5.016927	1.047649	8.281044	0.003485	-0.003909	-0.001166	-0.648193	-0.184326	-0.342285	-0.173703	-0.275666	-0.007084	-0.945402
13654		5.005949	1.059860	8.297898	0.005042	-0.004977	-0.001568	-0.650635	-0.185059	-0.340576	-0.173652	-0.275725	-0.007094	-0.945394
13655		5.015139	1.061525	8.286059	0.005085	-0.004728	-0.000144	-0.652100	-0.187988	-0.353027	-0.173568	-0.275797	-0.007102	-0.945389
13656		5.024571	1.046129	8.290795	0.005855	-0.005029	-0.002961	-0.650635	-0.183350	-0.345215	-0.173567	-0.275812	-0.007129	-0.945384
13657		5.016664	1.061106	8.275244	0.006269	-0.006555	-0.001896	-0.645752	-0.187500	-0.347168	-0.173470	-0.275879	-0.007167	-0.945382
13658		5.031250	1.040868	8.291669	0.006270	-0.006555	-0.001896	-0.642578	-0.192871	-0.349854	-0.173522	-0.275929	-0.007169	-0.945358
13659		5.037620	1.057791	8.295223	0.005217	-0.005926	-0.002102	-0.650146	-0.189941	-0.357666	-0.173730	-0.275956	-0.007125	-0.945312
13660		5.016755	1.060064	8.295581	0.005968	-0.003818	-0.003919	-0.646729	-0.184326	-0.340820	-0.173803	-0.275929	-0.007149	-0.945307
13661		5.011827	1.063113	8.274039	0.002875	-0.001559	-0.002403	-0.642578	-0.196289	-0.348633	-0.173787	-0.275944	-0.007139	-0.945305
13662		5.017303	1.041804	8.302210	0.003598	-0.002698	-0.002124	-0.654053	-0.189453	-0.345703	-0.174063	-0.275941	-0.007063	-0.945256
13663		5.017513	1.060161	8.285165	0.004432	-0.002626	-0.002805	-0.645508	-0.177490	-0.353271	-0.174070	-0.275971	-0.007066	-0.945246
13664		5.030897	1.056744	8.285611	0.002853	-0.001684	-0.003115	-0.647461	-0.182861	-0.347412	-0.173928	-0.275904	-0.007112	-0.945291
13665		5.022638	1.053813	8.287122	0.003508	-0.003784	-0.000450	-0.645752	-0.182129	-0.353271	-0.173847	-0.275909	-0.007118	-0.945305
13666		5.010024	1.055974	8.276426	0.004384	-0.005997	-0.001417	-0.649902	-0.187988	-0.345459	-0.173781	-0.275906	-0.007138	-0.945318
13667		5.037280	1.048152	8.277146	0.005745	-0.006239	-0.001995	-0.642578	-0.184814	-0.345459	-0.173791	-0.275970	-0.007143	-0.945297
13668		5.025876	1.057342	8.284709	0.004848	-0.004151	-0.001739	-0.647461	-0.187500	-0.353760	-0.173820	-0.275985	-0.007140	-0.945287
13669		5.027017	1.061592	8.293421	0.002040	-0.001631	-0.001721	-0.650391	-0.187500	-0.347900	-0.173859	-0.275934	-0.007118	-0.945295
13670		5.021989	1.064048	8.272005	0.003642	-0.002448	-0.000699	-0.650635	-0.194092	-0.348389	-0.173846	-0.275936	-0.007109	-0.945297
13671		5.035368	1.040060	8.279733	0.004826	-0.004276	-0.002450	-0.663086	-0.184326	-0.348877	-0.173988	-0.275970	-0.007077	-0.945261
13672		5.032025	1.070133	8.269000	0.003928	-0.002187	-0.002195	-0.647949	-0.189941	-0.348633	-0.173788	-0.275988	-0.007129	-0.945292
13673		5.019073	1.055147	8.275306	0.003423	-0.001748	-0.001587	-0.655273	-0.191895	-0.350586	-0.173866	-0.275975	-0.007102	-0.945282
13674		5.033576	1.058294	8.294124	0.004258	-0.001677	-0.002268	-0.658203	-0.187744	-0.347412	-0.173908	-0.275972	-0.007098	-0.945275
13675		5.033057	1.035450	8.292079	0.003094	-0.002259	-0.001513	-0.653076	-0.182617	-0.348633	-0.173828	-0.275991	-0.007103	-0.945284
13676		5.020644	1.061414	8.283499	0.003754	-0.001238	-0.001660	-0.649902	-0.184082	-0.342041	-0.173696	-0.275972	-0.007138	-0.945314
13677		5.017056	1.053521	8.297037	0.002171	-0.002831	-0.003678	-0.653809	-0.189453	-0.340820	-0.173661	-0.275999	-0.007132	-0.945313
13678		5.030632	1.050260	8.297345	0.005442	-0.003504	-0.004018	-0.652588	-0.186035	-0.347412	-0.173682	-0.276065	-0.007144	-0.945289
13679		5.000381	1.065765	8.283252	0.004652	-0.003325	-0.001913	-0.650635	-0.186035	-0.350586	-0.173627	-0.276083	-0.007163	-0.945294
13680		5.027328	1.057975	8.284150	0.005221	-0.005924	-0.002092	-0.649902	-0.189941	-0.348633	-0.173595	-0.276111	-0.007182	-0.945291
13681		5.027805	1.056151	8.274147	0.005836	-0.005153	-0.003662	-0.651855	-0.182373	-0.342529	-0.173666	-0.276146	-0.007189	-0.945268
13682		5.034125	1.055819	8.294520	0.003444	-0.004158	-0.002580	-0.647705	-0.192627	-0.345947	-0.173557	-0.276188	-0.007208	-0.945276
13683		5.043055	1.057517	8.282788	0.005157	-0.003764	-0.002519	-0.654785	-0.191162	-0.354736	-0.173694	-0.276219	-0.007183	-0.945242
13684		5.029621	1.056858	8.263004	0.006211	-0.004392	-0.002311	-0.653076	-0.185303	-0.343994	-0.173716	-0.276225	-0.007206	-0.945236
13685		5.044970	1.063701	8.290781	0.003709	-0.001488	-0.003081	-0.652588	-0.188721	-0.350342	-0.173658	-0.276236	-0.007224	-0.945243
13686		5.026417	1.050371	8.276152	0.003249	-0.000798	-0.001051	-0.653809	-0.187012	-0.358154	-0.173650	-0.276208	-0.007218	-0.945253
13687		5.022376	1.059701	8.273135	0.004258	-0.001676	-0.002266	-0.658203	-0.191895	-0.347900	-0.173606	-0.276151	-0.007247	-0.945277
13688		5.019368	1.055375	8.295839	0.003357	-0.002124	-0.003718	-0.647217	-0.181152	-0.346191	-0.173631	-0.276170	-0.007243	-0.945267
13689		5.023696	1.045244	8.288843	0.007221	-0.005269	-0.003524	-0.647217	-0.192139	-0.353027	-0.173548	-0.276201	-0.007306	-0.945273
13690		5.024121	1.064021	8.271521	0.004983	-0.002814	-0.001983	-0.649658	-0.182129	-0.346924	-0.173674	-0.276180	-0.007288	-0.945256
13691		5.024904	1.047820	8.287786	0.002590	-0.001819	-0.000903	-0.647461	-0.186523	-0.346191	-0.173566	-0.276164	-0.007297	-0.945280
13692		5.041909	1.032830	8.281846	0.006454	-0.001847	-0.003523	-0.653320	-0.185791	-0.355469	-0.173590	-0.276162	-0.007329	-0.945276
13693		5.030886	1.069457	8.300841	0.004852	0.001505	-0.002843	-0.654297	-0.186523	-0.345215	-0.173531	-0.276081	-0.007377	-0.945310
13694		5.019671	1.056630	8.275607	0.002064	0.004148	-0.002119	-0.659912	-0.186279	-0.344238	-0.173475	-0.276020	-0.007383	-0.945339
13695		5.033112	1.059689	8.295078	0.004173	0.002894	-0.001702	-0.657471	-0.183350	-0.346924	-0.173338	-0.275995	-0.007425	-0.945370
13696		5.014566	1.050368	8.289898	0.008630	0.000394	-0.003787	-0.653809	-0.177490	-0.350586	-0.173182	-0.275986	-0.007535	-0.945401
13697		5.009613	1.057282	8.277786	0.006654	-0.000134	-0.001639	-0.653809	-0.180176	-0.352051	-0.172940	-0.275943	-0.007635	-0.945457
13698		5.027068	1.046421	8.281009	0.009201	-0.002205	-0.003962	-0.649902	-0.185547	-0.346680	-0.172772	-0.275927	-0.007756	-0.945491
13699		5.023180	1.057074	8.277714	0.008344	-0.002402	-0.003991	-0.649414	-0.180908	-0.350098	-0.172749	-0.275939	-0.007822	-0.945492
13700		5.029228	1.078039	8.290786	0.007862	-0.001836	-0.002673	-0.656982	-0.184814	-0.348389	-0.172638	-0.275917	-0.007904	-0.945518
13701		5.032580	1.064423	8.274904	0.002876	-0.001560	-0.002396	-0.653320	-0.197754	-0.345215	-0.172510	-0.275912	-0.007931	-0.945542
13702		5.019565	1.069979	8.273956	0.003644	0.000670	-0.003508	-0.650635	-0.186279	-0.355469	-0.172672	-0.275911	-0.007897	-0.945513
13703		5.032853	1.049107	8.291406	0.001362	-0.000242	-0.000576	-0.650635	-0.182617	-0.348145	-0.172652	-0.275840	-0.007876	-0.945538
13704		5.028382	1.057988	8.288683	0.002107	0.001862	-0.002399	-0.655273	-0.190186	-0.343506	-0.172570	-0.275778	-0.007890	-0.945571
13705		5.014923	1.063147	8.288053	0.001251	0.001665	-0.002430	-0.662354	-0.189209	-0.353760	-0.172559	-0.275762	-0.007871	-0.945578
13706		5.031878	1.050702	8.291796	0.000087	0.001082	-0.001675	-0.646729	-0.194824	-0.353516	-0.172453	-0.275712	-0.007865	-0.945611
13707		5.026930	1.055966	8.279881	0.000460	-0.000692	-0.002028	-0.646973	-0.189941	-0.351807	-0.172659	-0.275661	-0.007780	-0.945589
13708		5.019428	1.059642	8.300011	0.003491	-0.000791	-0.003965	-0.649414	-0.182617	-0.347656	-0.172779	-0.275620	-0.007762	-0.945579
13709		5.013538	1.058955	8.269547	0.002877	-0.001560	-0.002395	-0.655029	-0.188232	-0.355469	-0.172708	-0.275602	-0.007774	-0.945598
13710		5.027681	1.041389	8.296010	0.001317	-0.000494	-0.001998	-0.653320	-0.192627	-0.339600	-0.172684	-0.275550	-0.007761	-0.945617
13711		5.018570	1.055474	8.281185	0.002986	-0.000351	-0.003359	-0.647461	-0.190674	-0.354248	-0.172744	-0.275581	-0.007740	-0.945597
13712		5.014910	1.067905	8.287449	0.001339	-0.000368	-0.001287	-0.641602	-0.182861	-0.340576	-0.172847	-0.275522	-0.007688	-0.945596
13713		5.023499	1.051809	8.292912	0.001272	-0.000747	-0.003419	-0.647705	-0.185791	-0.336914	-0.172883	-0.275510	-0.007657	-0.945593
13714		5.010667	1.057195	8.291871	0.003382	-0.001999	-0.003001	-0.656982	-0.194580	-0.347656	-0.172883	-0.275554	-0.007650	-0.945581
13715		5.006756	1.066251	8.288778	0.000307	-0.002153	-0.002485	-0.649170	-0.188721	-0.340820	-0.172948	-0.275571	-0.007594	-0.945564
13716		5.023226	1.047423	8.273761	0.003382	-0.001999	-0.003000	-0.655029	-0.186768	-0.350830	-0.172988	-0.275602	-0.007579	-0.945548
13717		5.023907	1.031368	8.290137	0.002832	-0.001812	-0.003815	-0.648682	-0.187500	-0.343750	-0.172947	-0.275589	-0.007592	-0.945559
13718		5.016414	1.072853	8.285900	0.002327	-0.001373	-0.003209	-0.646240	-0.183350	-0.341064	-0.172980	-0.275593	-0.007573	-0.945552
13719		5.015976	1.069934	8.276599	-0.000352	-0.000637	-0.000636	-0.647461	-0.181641	-0.344727	-0.172943	-0.275584	-0.007526	-0.945562
13720		4.998149	1.042068	8.288125	0.000898	0.001027	-0.003066	-0.647705	-0.191895	-0.355225	-0.172892	-0.275540	-0.007520	-0.945584
13721		5.007596	1.049922	8.295156	0.002219	-0.002581	-0.002245	-0.644531	-0.184326	-0.347656	-0.173017	-0.275507	-0.007474	-0.945571
13722		5.017377	1.057637	8.302001	0.000330	-0.002027	-0.001774	-0.656738	-0.189941	-0.351562	-0.173035	-0.275482	-0.007429	-0.945575
13723		5.007745	1.047401	8.285451	0.000659	-0.001516	-0.001848	-0.649170	-0.192139	-0.349365	-0.173018	-0.275467	-0.007400	-0.945583
13724		5.004803	1.042613	8.308221	0.003076	-0.002383	-0.002214	-0.648682	-0.193115	-0.352295	-0.173121	-0.275466	-0.007365	-0.945565
13725		5.018622	1.059760	8.300978	0.005164	-0.003761	-0.002506	-0.649170	-0.178223	-0.349854	-0.173244	-0.275471	-0.007348	-0.945541
13726		5.022497	1.046001	8.284825	0.003956	-0.004596	-0.003172	-0.647461	-0.190186	-0.350342	-0.173102	-0.275476	-0.007392	-0.945566
13727		5.010096	1.051379	8.283526	0.001714	-0.002142	-0.001638	-0.644043	-0.180176	-0.352051	-0.173186	-0.275458	-0.007345	-0.945556
13728		5.014345	1.040485	8.276721	0.004352	-0.003706	-0.001115	-0.647949	-0.190674	-0.347168	-0.173111	-0.275435	-0.007366	-0.945576
13729		5.020437	1.039885	8.297303	0.003626	-0.002569	-0.001398	-0.656494	-0.185059	-0.354736	-0.173189	-0.275443	-0.007336	-0.945560
13730		5.004082	1.056803	8.302550	0.001515	-0.001318	-0.001817	-0.657471	-0.187500	-0.339600	-0.173088	-0.275405	-0.007342	-0.945589
13731		5.024752	1.050160	8.282932	0.003909	0.000227	-0.001196	-0.649414	-0.181396	-0.345215	-0.173000	-0.275431	-0.007358	-0.945598
13732		5.003575	1.034727	8.300571	0.003581	-0.002822	-0.002819	-0.644775	-0.186035	-0.348389	-0.172913	-0.275441	-0.007380	-0.945610
13733		5.013056	1.059707	8.290613	0.000551	-0.002725	-0.000882	-0.646729	-0.187744	-0.350586	-0.172951	-0.275426	-0.007326	-0.945608
13734		5.020899	1.037106	8.277510	0.005317	-0.002299	-0.002048	-0.648193	-0.190430	-0.356934	-0.172996	-0.275411	-0.007331	-0.945604
13735		5.004683	1.054297	8.282634	0.001890	-0.003092	-0.002168	-0.651123	-0.192383	-0.355225	-0.173088	-0.275377	-0.007289	-0.945598
13736		5.001049	1.063641	8.279322	0.005165	-0.003760	-0.002504	-0.646484	-0.180176	-0.346436	-0.173175	-0.275373	-0.007283	-0.945583
13737		5.018563	1.048505	8.273152	0.003190	-0.004288	-0.000357	-0.651123	-0.189941	-0.354004	-0.173067	-0.275387	-0.007289	-0.945599
13738		5.024738	1.047754	8.293710	0.003627	-0.002569	-0.001397	-0.653809	-0.187012	-0.348389	-0.173102	-0.275369	-0.007275	-0.945598
13739		5.019701	1.050410	8.272219	0.003888	-0.002438	-0.003603	-0.647461	-0.184326	-0.348389	-0.173081	-0.275377	-0.007290	-0.945599
13740		5.016396	1.042951	8.285643	0.005165	-0.003760	-0.002503	-0.654785	-0.181885	-0.342285	-0.173059	-0.275387	-0.007310	-0.945600
13741		5.008629	1.061023	8.279389	0.005341	-0.004710	-0.003032	-0.643555	-0.184570	-0.349121	-0.172923	-0.275448	-0.007360	-0.945607
13742		5.014361	1.057611	8.290620	0.005670	-0.004199	-0.003107	-0.653076	-0.184814	-0.353271	-0.172955	-0.275453	-0.007375	-0.945599
13743		5.022640	1.056024	8.269720	0.003781	-0.003646	-0.002636	-0.649170	-0.190430	-0.353760	-0.172893	-0.275448	-0.007395	-0.945612
13744		5.002250	1.044077	8.296435	0.003512	-0.000664	-0.003252	-0.655029	-0.186035	-0.349365	-0.172981	-0.275404	-0.007381	-0.945609
13745		5.020674	1.035811	8.308725	0.004531	-0.004655	-0.001640	-0.651367	-0.179688	-0.354980	-0.172904	-0.275436	-0.007401	-0.945613
13746		5.022575	1.061054	8.309418	0.006268	-0.006669	-0.002565	-0.648926	-0.193359	-0.348877	-0.172762	-0.275454	-0.007465	-0.945633
13747		5.023154	1.058842	8.299411	0.003391	-0.005110	-0.000174	-0.662598	-0.184326	-0.339355	-0.172867	-0.275489	-0.007412	-0.945605
13748		5.031583	1.056791	8.278470	0.004355	-0.003704	-0.001110	-0.645264	-0.190430	-0.348145	-0.172674	-0.275565	-0.007453	-0.945617
13749		5.007468	1.053148	8.302076	0.004730	-0.005478	-0.001458	-0.651123	-0.182129	-0.345703	-0.172777	-0.275598	-0.007423	-0.945589
13750		5.007357	1.047667	8.282965	0.006115	-0.005591	-0.001323	-0.651123	-0.188965	-0.342529	-0.172665	-0.275647	-0.007465	-0.945595
13751		5.033230	1.033135	8.265498	0.003124	-0.004668	-0.002483	-0.644043	-0.196533	-0.350342	-0.172694	-0.275700	-0.007443	-0.945574
13752		5.047947	1.053446	8.267147	0.004601	-0.004272	0.000492	-0.651367	-0.182861	-0.349121	-0.172892	-0.275714	-0.007377	-0.945535
13753		5.610183	0.948075	7.944079	0.001652	-0.009442	0.005690	-0.653076	-0.183105	-0.350342	-0.172726	-0.275784	-0.007332	-0.945545
13754		5.521613	0.924621	7.978351	0.003296	-0.009426	0.003620	-0.653809	-0.183838	-0.345215	-0.172571	-0.275855	-0.007315	-0.945552
13755		4.912255	1.076402	8.306798	0.006186	-0.010290	-0.002576	-0.655518	-0.192383	-0.341797	-0.172488	-0.275968	-0.007347	-0.945535
13756		5.193768	1.019933	8.182832	0.002253	-0.003024	0.002988	-0.657471	-0.193359	-0.347168	-0.172477	-0.276015	-0.007291	-0.945523
13757		5.227434	1.005055	8.154457	0.004425	-0.003321	0.001022	-0.653320	-0.185303	-0.349609	-0.172484	-0.276050	-0.007270	-0.945512
13758		5.101189	1.032697	8.120824	0.011807	-0.013470	0.002919	-0.649414	-0.183105	-0.353516	-0.172353	-0.276194	-0.007334	-0.945493
13759		4.925246	1.077071	8.248652	0.022893	-0.060081	0.010252	-0.654297	-0.183105	-0.346680	-0.172107	-0.276884	-0.007405	-0.945336
13760		5.255039	0.965363	8.196552	0.031835	-0.094265	0.014245	-0.654053	-0.191162	-0.336914	-0.171742	-0.278032	-0.007503	-0.945064
13761		5.372569	1.054657	8.113600	0.028273	-0.085089	0.012175	-0.654053	-0.187500	-0.337646	-0.171553	-0.279105	-0.007542	-0.944782
13762		5.351536	1.018756	8.110329	0.020197	-0.057167	0.012507	-0.655518	-0.187988	-0.335205	-0.171335	-0.279816	-0.007560	-0.944611
13763		5.293387	1.018581	8.130606	0.023376	-0.041152	0.007300	-0.656250	-0.184814	-0.343750	-0.171167	-0.280353	-0.007666	-0.944481
13764		5.345554	0.996405	8.079216	0.028348	-0.035088	0.002051	-0.664062	-0.189941	-0.332764	-0.170992	-0.280785	-0.007881	-0.944383
13765		5.241543	1.030342	8.155543	0.037171	-0.043023	-0.005894	-0.661621	-0.179688	-0.329834	-0.170883	-0.281393	-0.008204	-0.944219
13766		5.278127	1.071150	8.133608	0.042195	-0.059667	-0.007174	-0.661865	-0.183838	-0.335205	-0.170631	-0.282198	-0.008595	-0.944021
13767		5.358468	1.055908	8.085317	0.040146	-0.076157	-0.000920	-0.667725	-0.189941	-0.323242	-0.170379	-0.283169	-0.008890	-0.943773
13768		5.337586	1.068482	8.106710	0.045456	-0.083546	-0.006252	-0.660645	-0.187012	-0.333496	-0.170191	-0.284299	-0.009240	-0.943464
13769		5.326559	1.125707	8.109776	0.039526	-0.085477	-0.001816	-0.664307	-0.191650	-0.330811	-0.170016	-0.285371	-0.009494	-0.943169
13770		5.353242	1.074550	8.077385	0.037380	-0.081938	-0.001921	-0.664307	-0.194580	-0.323975	-0.169880	-0.286411	-0.009722	-0.942876
13771		5.340500	1.106674	8.079941	0.037774	-0.077935	-0.002680	-0.660645	-0.188477	-0.323242	-0.169786	-0.287428	-0.009953	-0.942581
13772		5.584552	1.107296	7.965937	0.033272	-0.079037	-0.000512	-0.670410	-0.191895	-0.319824	-0.169640	-0.288430	-0.010133	-0.942299
13773		5.310616	1.174947	8.113981	0.030441	-0.097308	0.012080	-0.676514	-0.195068	-0.319092	-0.169305	-0.289670	-0.010210	-0.941978
13774		5.292720	1.150452	8.145036	0.039093	-0.122530	0.029254	-0.672607	-0.190674	-0.311523	-0.168724	-0.291233	-0.010279	-0.941600
13775		5.338101	1.113080	8.118207	0.031404	-0.160899	0.036491	-0.678955	-0.184814	-0.317139	-0.168078	-0.293238	-0.010152	-0.941094
13776		5.451267	1.116897	8.052257	0.021892	-0.203407	0.032938	-0.677002	-0.199219	-0.309570	-0.167413	-0.295688	-0.009870	-0.940449
13777		5.483920	1.057760	8.034956	0.028678	-0.250585	0.028055	-0.688477	-0.193359	-0.294922	-0.166979	-0.298726	-0.009531	-0.939569
13778		5.544111	1.120523	7.994374	0.038372	-0.281214	0.026515	-0.685547	-0.186523	-0.291260	-0.166370	-0.302173	-0.009292	-0.938577
