// Start Time: Unknown
// Update Rate: 40.0Hz
// Filter Profile: human (46.1)
// Firmware Version: 4.6.0
PacketCounter	SampleTimeFine	Acc_X	Acc_Y	Acc_Z	Gyr_X	Gyr_Y	Gyr_Z	Mag_X	Mag_Y	Mag_Z	Quat_q0	Quat_q1	Quat_q2	Quat_q3
12875		9.662647	0.113980	-1.590311	-0.008450	0.005221	0.001769	-0.622314	-0.253418	0.468506	-0.200539	-0.727589	0.227686	-0.615270
12876		9.622945	0.117155	-1.701197	-0.021876	-0.004049	0.000904	-0.629639	-0.251465	0.468262	-0.200719	-0.727563	0.227872	-0.615173
12877		9.587152	0.097500	-1.767323	-0.015926	-0.011737	-0.002847	-0.627686	-0.262207	0.465332	-0.200849	-0.727617	0.228000	-0.615019
12878		9.591658	0.058725	-1.804287	-0.000039	-0.008175	0.001439	-0.620361	-0.247803	0.465088	-0.200813	-0.727681	0.228036	-0.614942
12879		9.583693	0.103405	-1.830854	0.002112	-0.003068	0.005004	-0.636230	-0.249268	0.469971	-0.200737	-0.727711	0.228082	-0.614915
12880		9.579610	0.118552	-1.773465	0.008493	0.000474	0.005424	-0.628418	-0.253174	0.459473	-0.200602	-0.727744	0.228078	-0.614921
12881		9.580438	0.156837	-1.760817	-0.005814	-0.008154	0.001167	-0.621338	-0.252686	0.462646	-0.200601	-0.727835	0.228172	-0.614779
12882		9.583874	0.161675	-1.776595	-0.022611	-0.019638	-0.000944	-0.626465	-0.252686	0.462402	-0.200736	-0.727995	0.228405	-0.614458
12883		9.620662	0.067418	-1.701477	0.003334	-0.015508	0.003999	-0.625000	-0.245117	0.460449	-0.200608	-0.728196	0.228473	-0.614238
12884		9.648039	0.000534	-1.687182	-0.002091	-0.010205	0.009270	-0.628662	-0.251465	0.465332	-0.200493	-0.728332	0.228627	-0.614056
12885		9.642217	0.074454	-1.673265	-0.029834	-0.007678	0.005264	-0.627930	-0.247070	0.466797	-0.200648	-0.728395	0.228965	-0.613804
12886		9.636316	0.128946	-1.704455	-0.015031	-0.009818	-0.000032	-0.623047	-0.251953	0.466797	-0.200696	-0.728527	0.229156	-0.613561
12887		9.610328	0.092462	-1.704578	0.001515	-0.009316	0.000993	-0.619141	-0.245850	0.464600	-0.200596	-0.728697	0.229217	-0.613369
12888		9.614769	0.073905	-1.696957	-0.013058	-0.015366	0.001941	-0.623779	-0.248779	0.473145	-0.200605	-0.728866	0.229427	-0.613087
12889		9.650158	0.078997	-1.717960	-0.010076	-0.016593	0.001695	-0.625977	-0.256104	0.465820	-0.200565	-0.729081	0.229613	-0.612775
12890		9.661493	0.099397	-1.717807	-0.022511	-0.008838	0.005102	-0.624512	-0.251953	0.468018	-0.200636	-0.729186	0.229894	-0.612521
12891		9.634489	0.093386	-1.699609	-0.021919	-0.004881	0.001130	-0.619385	-0.256104	0.467041	-0.200743	-0.729273	0.230135	-0.612291
12892		9.611179	0.078773	-1.698328	-0.002024	-0.007399	0.000111	-0.618652	-0.253174	0.467529	-0.200689	-0.729419	0.230202	-0.612110
12893		9.616693	0.078347	-1.721252	0.006441	-0.008243	0.001787	-0.624268	-0.248535	0.463135	-0.200541	-0.729581	0.230234	-0.611953
12894		9.609116	0.066811	-1.774371	0.004165	-0.002282	0.001481	-0.629639	-0.250244	0.468750	-0.200418	-0.729678	0.230297	-0.611855
12895		9.605737	0.087650	-1.753206	-0.001731	-0.001599	0.005978	-0.627686	-0.253174	0.468750	-0.200281	-0.729785	0.230438	-0.611718
12896		9.636056	0.112326	-1.704691	-0.004457	-0.003329	0.005148	-0.626953	-0.254395	0.464844	-0.200182	-0.729900	0.230578	-0.611561
12897		9.612312	0.132308	-1.721011	0.005603	-0.001520	0.001480	-0.624023	-0.257568	0.466064	-0.200052	-0.730008	0.230592	-0.611470
12898		9.638773	0.075806	-1.732187	0.006755	-0.004274	0.003598	-0.627197	-0.251953	0.469971	-0.199914	-0.730135	0.230591	-0.611363
12899		9.635982	0.032581	-1.778214	-0.001914	0.002928	0.002227	-0.624268	-0.247314	0.474121	-0.199849	-0.730204	0.230658	-0.611277
12900		9.600863	0.053118	-1.750775	0.007710	0.006200	0.000856	-0.625732	-0.252686	0.473145	-0.199695	-0.730284	0.230658	-0.611231
12901		9.576949	0.060117	-1.770588	0.015089	-0.001969	0.001398	-0.621338	-0.248779	0.468018	-0.199452	-0.730448	0.230590	-0.611140
12902		9.596307	0.082736	-1.756588	0.014883	-0.000387	0.002352	-0.624023	-0.244141	0.469482	-0.199247	-0.730544	0.230566	-0.611102
12903		9.610975	0.067369	-1.780424	0.016822	-0.006392	0.000391	-0.625000	-0.249023	0.466797	-0.198991	-0.730699	0.230553	-0.611005
12904		9.634804	0.058823	-1.761131	0.022032	-0.001804	-0.000928	-0.620361	-0.250732	0.469727	-0.198736	-0.730827	0.230442	-0.610977
12905		9.634265	0.052788	-1.725183	0.023411	0.000337	-0.000807	-0.621338	-0.253174	0.464111	-0.198488	-0.730961	0.230290	-0.610954
12906		9.634763	0.064860	-1.719939	0.027539	0.005908	-0.000249	-0.629639	-0.249512	0.467773	-0.198258	-0.731017	0.230094	-0.611036
12907		9.613161	0.080317	-1.743080	0.022676	0.004308	-0.001366	-0.624268	-0.238770	0.464844	-0.197999	-0.731091	0.229944	-0.611087
12908		9.607083	0.066807	-1.725896	0.023492	0.001511	-0.001512	-0.625000	-0.258057	0.471924	-0.197726	-0.731138	0.229879	-0.611145
12909		9.626245	0.076916	-1.715539	0.026454	0.004209	-0.002225	-0.626953	-0.253662	0.456787	-0.197496	-0.731272	0.229601	-0.611163
12910		9.611290	0.069900	-1.737398	0.011756	-0.000781	-0.000620	-0.623047	-0.246582	0.470459	-0.197464	-0.731251	0.229548	-0.611219
12911		9.610913	0.056766	-1.741987	0.007652	0.000119	-0.002228	-0.623291	-0.247559	0.462646	-0.197352	-0.731330	0.229508	-0.611174
12912		9.617883	0.055141	-1.694829	0.019704	-0.001075	-0.004507	-0.626953	-0.251709	0.470703	-0.197215	-0.731382	0.229380	-0.611205
12913		9.647624	0.047661	-1.696125	0.020751	-0.003757	-0.005993	-0.623291	-0.248291	0.464111	-0.197026	-0.731531	0.229175	-0.611165
12914		9.644320	0.069865	-1.674649	0.024602	0.003930	-0.004180	-0.628662	-0.249512	0.473389	-0.196860	-0.731556	0.228987	-0.611259
12915		9.657921	0.072960	-1.683156	0.008889	0.008091	-0.002148	-0.616699	-0.259277	0.467285	-0.196743	-0.731578	0.228876	-0.611312
12916		9.636298	0.097486	-1.664776	-0.001426	0.009632	-0.001532	-0.623535	-0.245605	0.475342	-0.196942	-0.731550	0.228815	-0.611304
12917		9.625229	0.090699	-1.660680	-0.000365	0.012570	-0.003882	-0.624268	-0.248047	0.466309	-0.196906	-0.731542	0.228763	-0.611345
12918		9.607225	0.085701	-1.703767	-0.005909	0.010624	-0.000971	-0.621338	-0.253174	0.465088	-0.197001	-0.731432	0.228801	-0.611431
12919		9.612484	0.046716	-1.735741	0.000073	0.009868	-0.001851	-0.632080	-0.248047	0.463623	-0.197135	-0.731356	0.228763	-0.611493
12920		9.625639	0.045343	-1.707505	-0.001019	0.006462	-0.003429	-0.628418	-0.248291	0.475830	-0.197174	-0.731241	0.228754	-0.611622
12921		9.645407	0.069895	-1.690999	0.003825	0.012845	-0.002980	-0.627930	-0.255859	0.454834	-0.197082	-0.731236	0.228647	-0.611697
12922		9.629841	0.094396	-1.692491	-0.003008	0.014700	-0.001568	-0.630859	-0.252197	0.467773	-0.197374	-0.730977	0.228657	-0.611909
12923		9.625536	0.113590	-1.699417	-0.013096	0.016352	-0.002304	-0.622803	-0.244385	0.460938	-0.197564	-0.730812	0.228689	-0.612033
12924		9.602715	0.065525	-1.742627	-0.003435	0.013479	-0.003126	-0.629639	-0.250977	0.466309	-0.197649	-0.730654	0.228708	-0.612186
12925		9.621270	0.037510	-1.743230	0.016842	0.012196	-0.002553	-0.625244	-0.254883	0.465576	-0.197553	-0.730593	0.228528	-0.612357
12926		9.618519	0.059458	-1.718232	0.007131	0.017297	-0.001813	-0.625977	-0.244385	0.469727	-0.197652	-0.730490	0.228417	-0.612490
12927		9.611459	0.105340	-1.740056	-0.003450	0.012630	-0.002934	-0.631104	-0.246582	0.467041	-0.197606	-0.730439	0.228395	-0.612574
12928		9.621020	0.112929	-1.693599	-0.002170	0.013603	-0.002106	-0.625977	-0.246826	0.455811	-0.197588	-0.730325	0.228366	-0.612726
12929		9.628503	0.090295	-1.687558	0.005331	0.018328	-0.000033	-0.631348	-0.245850	0.472412	-0.197663	-0.730085	0.228348	-0.612995
12930		9.631742	0.050361	-1.672597	0.005038	0.020824	-0.002894	-0.627686	-0.249512	0.466064	-0.197521	-0.730012	0.228203	-0.613181
12931		9.631394	0.060053	-1.695534	0.011404	0.018746	-0.001610	-0.626953	-0.246826	0.466797	-0.197470	-0.729917	0.228056	-0.613366
12932		9.624624	0.056672	-1.702859	0.012344	0.013193	-0.001985	-0.628174	-0.245605	0.472412	-0.197338	-0.729885	0.227913	-0.613500
12933		9.619923	0.083205	-1.669284	0.015474	0.017384	-0.003918	-0.624756	-0.245605	0.466797	-0.197104	-0.729900	0.227686	-0.613641
12934		9.618387	0.095861	-1.615543	0.012137	0.021256	-0.002106	-0.623291	-0.246582	0.464355	-0.196990	-0.729823	0.227526	-0.613828
12935		9.628804	0.108056	-1.603714	0.005849	0.018029	-0.003040	-0.625244	-0.255127	0.465820	-0.196993	-0.729741	0.227424	-0.613963
12936		9.641988	0.072187	-1.622825	0.007872	0.015885	-0.001832	-0.625977	-0.246582	0.466553	-0.197102	-0.729694	0.227285	-0.614035
12937		9.654928	0.022877	-1.646164	0.015734	0.019671	-0.001724	-0.613770	-0.250488	0.467773	-0.196963	-0.729635	0.227096	-0.614220
12938		9.633900	0.025675	-1.669908	0.020763	0.024476	-0.002212	-0.632568	-0.251465	0.464355	-0.196911	-0.729668	0.226837	-0.614293
12939		9.615566	0.084156	-1.643147	0.028653	0.025187	-0.001822	-0.624512	-0.250000	0.462158	-0.196769	-0.729529	0.226530	-0.614617
12940		9.630778	0.125636	-1.634525	0.027291	0.018270	-0.001263	-0.634033	-0.249268	0.468262	-0.196657	-0.729472	0.226277	-0.614813
12941		9.611649	0.109616	-1.604231	0.007997	0.014830	-0.002472	-0.625000	-0.246338	0.466553	-0.196586	-0.729411	0.226128	-0.614963
12942		9.635240	0.063154	-1.592900	0.027348	0.018118	-0.005701	-0.629395	-0.250488	0.463623	-0.196376	-0.729427	0.225815	-0.615126
12943		9.659512	0.042512	-1.572020	0.021464	0.020518	-0.001638	-0.629639	-0.247803	0.452881	-0.196306	-0.729330	0.225577	-0.615351
12944		9.650292	0.065777	-1.593064	0.009724	0.021283	-0.001087	-0.633545	-0.258545	0.456055	-0.196432	-0.729046	0.225504	-0.615674
12945		9.635000	0.089528	-1.593147	0.011918	0.020630	-0.001097	-0.624268	-0.242920	0.457764	-0.196701	-0.728804	0.225365	-0.615925
12946		9.630304	0.081527	-1.608395	0.018162	0.016063	-0.002798	-0.628906	-0.251221	0.454346	-0.196577	-0.728713	0.225196	-0.616135
12947		9.642201	0.075766	-1.610270	0.022491	0.016136	-0.002702	-0.627930	-0.247803	0.460693	-0.196633	-0.728554	0.225001	-0.616376
12948		9.656063	0.051104	-1.556355	0.017624	0.018076	-0.000203	-0.638916	-0.241699	0.455322	-0.196561	-0.728461	0.224831	-0.616571
12949		9.633040	0.057792	-1.572692	0.014476	0.018664	0.001044	-0.632568	-0.249268	0.459717	-0.196372	-0.728198	0.224695	-0.616992
12950		9.650642	0.072703	-1.550196	0.010585	0.016261	-0.001136	-0.635010	-0.246826	0.472168	-0.196401	-0.728065	0.224575	-0.617182
12951		9.640776	0.069980	-1.581193	0.022003	0.016290	-0.004141	-0.627441	-0.246094	0.460205	-0.196122	-0.728122	0.224275	-0.617313
12952		9.646276	0.051390	-1.566297	0.022790	0.017054	-0.000627	-0.628174	-0.252441	0.460938	-0.195984	-0.728064	0.224064	-0.617502
12953		9.653865	0.089723	-1.570266	0.009701	0.015667	-0.000216	-0.629883	-0.243652	0.464600	-0.196104	-0.727990	0.223960	-0.617589
12954		9.666896	0.088181	-1.540030	0.005293	0.015639	-0.003931	-0.636719	-0.248047	0.454346	-0.196024	-0.727954	0.223832	-0.617703
12955		9.638031	0.061019	-1.516772	0.012242	0.017990	-0.002679	-0.626953	-0.243408	0.456055	-0.196077	-0.727725	0.223693	-0.618006
12956		9.626898	0.040168	-1.515674	0.023553	0.016490	-0.000829	-0.632568	-0.253662	0.459473	-0.195919	-0.727638	0.223489	-0.618232
12957		9.647346	0.056198	-1.607410	0.006462	0.008126	-0.001088	-0.636719	-0.244629	0.452881	-0.196085	-0.727576	0.223423	-0.618277
12958		9.662379	0.063218	-1.582516	0.001314	0.012551	-0.001478	-0.628662	-0.253418	0.459229	-0.196138	-0.727355	0.223388	-0.618532
12959		9.655468	0.059299	-1.522623	0.012545	0.010244	-0.003033	-0.634521	-0.242432	0.459473	-0.196283	-0.727333	0.223267	-0.618556
12960		9.640106	0.047546	-1.506297	0.012540	0.010734	0.000892	-0.623535	-0.248535	0.457275	-0.196081	-0.727262	0.223140	-0.618749
12961		9.653214	0.059304	-1.541187	0.004049	0.011222	-0.000351	-0.635742	-0.235352	0.456787	-0.196211	-0.727224	0.223114	-0.618762
12962		9.646360	0.055807	-1.549618	0.002558	0.011834	-0.000246	-0.626221	-0.239502	0.461426	-0.195953	-0.727089	0.223037	-0.619030
12963		9.634458	0.057313	-1.573364	0.003099	0.011157	0.000887	-0.635742	-0.246094	0.459473	-0.195783	-0.727095	0.222975	-0.619100
12964		9.653739	0.067781	-1.560665	0.008849	0.012001	0.001001	-0.630371	-0.250977	0.459717	-0.195717	-0.727003	0.222883	-0.619262
12965		9.658487	0.071537	-1.570077	0.004778	0.013730	-0.000854	-0.628662	-0.251709	0.467285	-0.195853	-0.726938	0.222817	-0.619318
12966		9.612610	0.028548	-1.566170	0.015383	0.011782	-0.003016	-0.632324	-0.240723	0.455078	-0.195831	-0.727036	0.222621	-0.619281
12967		9.635188	-0.009098	-1.583214	0.022452	0.011379	-0.001974	-0.636475	-0.243408	0.455078	-0.195597	-0.726967	0.222415	-0.619509
12968		9.659009	0.031071	-1.505670	0.017050	0.014850	-0.000833	-0.631104	-0.242920	0.451904	-0.195467	-0.726825	0.222254	-0.619775
12969		9.650831	0.071437	-1.492935	0.017851	0.007309	-0.003857	-0.625732	-0.258057	0.457031	-0.195389	-0.726756	0.222101	-0.619936
12970		9.672904	0.082495	-1.457559	0.025881	0.007327	-0.008176	-0.636719	-0.255127	0.462402	-0.195613	-0.726817	0.221865	-0.619878
12971		9.692141	0.045200	-1.430239	0.022915	0.012941	-0.000936	-0.635986	-0.248779	0.449219	-0.195629	-0.726793	0.221654	-0.619977
12972		9.680657	0.059567	-1.448662	0.003706	0.018979	-0.000030	-0.631592	-0.244141	0.459473	-0.195812	-0.726521	0.221610	-0.620252
12973		9.674244	0.118091	-1.465986	-0.003669	0.019310	-0.003351	-0.633057	-0.243652	0.460693	-0.195888	-0.726406	0.221562	-0.620380
12974		9.628111	0.111354	-1.481017	-0.003209	0.008796	-0.003902	-0.638672	-0.242920	0.455566	-0.195899	-0.726384	0.221522	-0.620417
12975		9.652865	0.035119	-1.488160	0.004626	0.004781	-0.006371	-0.633789	-0.249023	0.454346	-0.195852	-0.726320	0.221407	-0.620549
12976		9.643946	-0.011291	-1.474068	0.006788	0.011103	-0.003556	-0.629150	-0.245117	0.462158	-0.195967	-0.726221	0.221317	-0.620660
12977		9.622931	0.066870	-1.508886	-0.002913	-0.002354	-0.003423	-0.642822	-0.246826	0.453857	-0.195975	-0.726335	0.221312	-0.620526
12978		9.654828	0.068281	-1.514351	0.007317	-0.009816	-0.002488	-0.632568	-0.251221	0.451416	-0.195916	-0.726330	0.221253	-0.620571
12979		9.669029	0.075929	-1.493779	-0.001996	-0.005688	-0.003843	-0.629395	-0.243652	0.458252	-0.196148	-0.726313	0.221288	-0.620505
12980		9.669313	0.103037	-1.486080	-0.001651	-0.001371	-0.002590	-0.628662	-0.248535	0.459717	-0.196137	-0.726370	0.221285	-0.620443
12981		9.646218	0.088609	-1.483724	-0.000389	-0.000388	-0.001757	-0.635742	-0.254395	0.456055	-0.196217	-0.726436	0.221289	-0.620340
12982		9.651746	0.049232	-1.518393	0.006791	-0.007441	-0.004031	-0.631836	-0.248047	0.453857	-0.196364	-0.726483	0.221240	-0.620255
12983		9.634669	0.034394	-1.538775	-0.004314	-0.009601	-0.002313	-0.631592	-0.246826	0.457520	-0.196477	-0.726521	0.221296	-0.620155
12984		9.625459	0.062436	-1.535196	-0.004383	-0.008220	-0.002206	-0.636475	-0.248535	0.454590	-0.196530	-0.726590	0.221340	-0.620042
12985		9.646125	0.082324	-1.531613	-0.006378	-0.010365	0.001189	-0.639893	-0.238281	0.453613	-0.196604	-0.726593	0.221431	-0.619982
12986		9.657949	0.081276	-1.507934	-0.021019	-0.013672	-0.001335	-0.626221	-0.250488	0.457275	-0.196567	-0.726571	0.221579	-0.619967
12987		9.669466	0.067625	-1.489230	-0.015776	-0.016074	-0.001848	-0.630127	-0.244385	0.467773	-0.196807	-0.726699	0.221759	-0.619677
12988		9.696039	0.012743	-1.500753	-0.007449	-0.007314	-0.001488	-0.628418	-0.247803	0.459473	-0.196726	-0.726870	0.221800	-0.619487
12989		9.654737	0.026888	-1.495877	-0.020269	0.001753	-0.000445	-0.636230	-0.237305	0.460693	-0.196940	-0.726849	0.221960	-0.619386
12990		9.628533	0.062181	-1.531919	-0.010615	-0.001595	-0.005085	-0.636719	-0.247559	0.467285	-0.196803	-0.726860	0.221968	-0.619414
12991		9.648746	0.043400	-1.540057	0.014025	-0.007196	-0.004030	-0.625977	-0.242920	0.457275	-0.196578	-0.727036	0.221805	-0.619337
12992		9.624691	0.037647	-1.566679	0.015695	-0.004128	-0.001847	-0.639648	-0.247070	0.466797	-0.196386	-0.727143	0.221691	-0.619313
12993		9.608785	0.088003	-1.564684	-0.005230	-0.005417	-0.002095	-0.624023	-0.244385	0.455566	-0.196318	-0.727220	0.221688	-0.619246
12994		9.648679	0.145741	-1.542457	-0.015825	-0.012146	-0.002347	-0.627930	-0.243896	0.455078	-0.196459	-0.727300	0.221849	-0.619049
12995		9.669305	0.117735	-1.525212	-0.011550	-0.017161	-0.001020	-0.633789	-0.246826	0.456055	-0.196512	-0.727393	0.221997	-0.618870
12996		9.659212	0.044820	-1.525143	-0.021337	-0.011546	-0.000080	-0.627441	-0.245361	0.462158	-0.196686	-0.727384	0.222207	-0.618749
12997		9.672261	0.035537	-1.540811	-0.023855	-0.002296	0.000064	-0.631836	-0.238770	0.460205	-0.196829	-0.727408	0.222387	-0.618611
12998		9.662085	0.046596	-1.571742	-0.012118	-0.000490	-0.001049	-0.621826	-0.251221	0.457520	-0.196748	-0.727399	0.222465	-0.618619
12999		9.617440	0.034746	-1.598267	0.013477	0.002150	-0.002760	-0.635742	-0.250244	0.458984	-0.196769	-0.727472	0.222352	-0.618568
13000		9.610537	0.057792	-1.601110	0.008700	-0.004259	-0.003211	-0.632812	-0.238525	0.458252	-0.196732	-0.727507	0.222269	-0.618568
13001		9.644995	0.093903	-1.602515	-0.009693	-0.010909	-0.000477	-0.633301	-0.244141	0.460205	-0.196613	-0.727553	0.222371	-0.618515
13002		9.646704	0.102555	-1.540633	-0.010854	-0.009024	-0.002430	-0.632080	-0.250977	0.457764	-0.196615	-0.727604	0.222452	-0.618426
13003		9.659040	0.053918	-1.569624	-0.005179	-0.007643	-0.002005	-0.624023	-0.240234	0.453125	-0.196729	-0.727634	0.222510	-0.618333
13004		9.661453	0.027710	-1.555945	-0.001684	-0.003914	-0.001983	-0.631348	-0.242432	0.457520	-0.196695	-0.727645	0.222560	-0.618313
13005		9.665862	0.045204	-1.564291	0.006713	0.002615	-0.001530	-0.638184	-0.239014	0.465332	-0.196564	-0.727626	0.222501	-0.618398
13006		9.629050	0.062751	-1.570134	0.012643	0.005801	-0.002851	-0.632812	-0.249756	0.454590	-0.196217	-0.727647	0.222314	-0.618551
13007		9.622296	0.085497	-1.572012	0.011015	0.000148	-0.000816	-0.632812	-0.248535	0.465088	-0.196225	-0.727610	0.222273	-0.618607
13008		9.665898	0.094027	-1.577598	-0.004729	-0.001315	-0.001662	-0.635010	-0.248291	0.469727	-0.196214	-0.727671	0.222255	-0.618545
13009		9.654116	0.074034	-1.580923	-0.001660	-0.001367	-0.002589	-0.633301	-0.243652	0.460205	-0.196111	-0.727780	0.222168	-0.618481
13010		9.657541	0.038521	-1.538466	0.005489	-0.002294	-0.001865	-0.627686	-0.248291	0.465576	-0.195986	-0.727810	0.222120	-0.618502
13011		9.633855	0.045986	-1.559455	0.007568	0.001515	-0.002051	-0.635010	-0.253662	0.463379	-0.195877	-0.727915	0.221989	-0.618460
13012		9.654915	0.065810	-1.553392	0.005437	0.000785	-0.002160	-0.630859	-0.252197	0.461426	-0.195886	-0.727949	0.221890	-0.618453
13013		9.649283	0.105939	-1.519714	0.001005	-0.002163	-0.001145	-0.625488	-0.246338	0.464844	-0.195931	-0.727995	0.221860	-0.618395
13014		9.658348	0.091813	-1.521378	0.010314	0.001039	-0.001122	-0.629150	-0.245361	0.464111	-0.195778	-0.728105	0.221735	-0.618359
13015		9.659063	0.069930	-1.566357	0.008004	-0.002027	0.000204	-0.629883	-0.246826	0.459717	-0.195617	-0.728195	0.221657	-0.618332
13016		9.655064	0.079195	-1.549444	-0.003275	0.002851	-0.002467	-0.634033	-0.245605	0.464844	-0.195674	-0.728172	0.221667	-0.618337
13017		9.631703	0.038319	-1.554939	0.007483	0.001197	-0.001537	-0.630371	-0.247559	0.455078	-0.195524	-0.728216	0.221567	-0.618368
13018		9.645476	0.054241	-1.560066	0.007088	0.001304	0.000631	-0.629883	-0.241699	0.467773	-0.195532	-0.728168	0.221570	-0.618421
13019		9.644837	0.076435	-1.583545	0.004006	-0.000835	-0.001962	-0.626465	-0.249023	0.460693	-0.195331	-0.728275	0.221480	-0.618392
13020		9.642796	0.081173	-1.575327	0.004556	-0.000661	-0.001031	-0.630859	-0.245605	0.457764	-0.195327	-0.728327	0.221434	-0.618348
13021		9.643409	0.058936	-1.552020	0.008955	-0.001110	-0.001236	-0.625977	-0.249756	0.466064	-0.195265	-0.728330	0.221396	-0.618378
13022		9.645526	0.067487	-1.556728	0.004607	-0.003740	-0.000734	-0.636230	-0.245117	0.463379	-0.195194	-0.728465	0.221309	-0.618272
13023		9.652692	0.071253	-1.546291	-0.008434	-0.002607	-0.000946	-0.643799	-0.246094	0.464355	-0.195196	-0.728461	0.221367	-0.618255
13024		9.636028	0.069245	-1.560729	-0.003469	-0.001184	-0.000627	-0.633789	-0.248291	0.463379	-0.195137	-0.728424	0.221379	-0.618313
13025		9.661678	0.057703	-1.548431	0.005345	-0.000382	-0.001443	-0.633545	-0.247559	0.453613	-0.195069	-0.728458	0.221305	-0.618321
13026		9.654375	0.054153	-1.559705	0.003536	-0.000196	0.000518	-0.636475	-0.250000	0.459717	-0.195126	-0.728374	0.221362	-0.618381
13027		9.647248	0.064058	-1.566848	-0.012752	-0.001840	-0.001255	-0.631104	-0.246338	0.464111	-0.195282	-0.728323	0.221462	-0.618357
13028		9.642103	0.069741	-1.582525	-0.006380	-0.001345	-0.000526	-0.621338	-0.239014	0.460205	-0.195282	-0.728355	0.221491	-0.618309
13029		9.645118	0.069567	-1.559162	0.002583	-0.001605	-0.001967	-0.628906	-0.250488	0.465576	-0.195189	-0.728420	0.221496	-0.618259
13030		9.624228	0.063552	-1.561132	-0.001750	-0.002537	-0.001870	-0.625732	-0.248047	0.475586	-0.195194	-0.728507	0.221449	-0.618173
13031		9.641676	0.058099	-1.588114	-0.007557	-0.001161	-0.002074	-0.624268	-0.244141	0.460938	-0.195107	-0.728686	0.221359	-0.618021
13032		9.650922	0.057378	-1.585633	0.008167	-0.001388	-0.000827	-0.635254	-0.246826	0.460693	-0.195012	-0.728748	0.221316	-0.617993
13033		9.653825	0.043680	-1.566054	0.008911	0.002819	-0.001738	-0.632324	-0.246826	0.456787	-0.194942	-0.728720	0.221247	-0.618073
13034		9.618109	0.079191	-1.605200	-0.004370	-0.005671	-0.002814	-0.626953	-0.251709	0.463379	-0.195036	-0.728705	0.221326	-0.618033
13035		9.622216	0.096761	-1.546557	-0.007840	-0.006855	-0.003440	-0.624512	-0.246826	0.461914	-0.195143	-0.728797	0.221340	-0.617885
13036		9.645714	0.090487	-1.526816	0.004384	-0.002638	-0.003726	-0.637939	-0.246338	0.455322	-0.195121	-0.728877	0.221285	-0.617819
13037		9.666238	0.022653	-1.520003	-0.000440	-0.005481	-0.000540	-0.629150	-0.242188	0.451904	-0.195158	-0.728814	0.221374	-0.617849
13038		9.664277	0.041263	-1.576821	-0.009865	-0.004228	-0.000744	-0.627930	-0.240723	0.461182	-0.195299	-0.728729	0.221574	-0.617833
13039		9.635393	0.054453	-1.613534	-0.003538	-0.000297	-0.004441	-0.635498	-0.251465	0.466064	-0.195283	-0.728740	0.221591	-0.617818
13040		9.655472	0.083232	-1.567301	0.007549	-0.000179	-0.001650	-0.631836	-0.252930	0.459229	-0.195199	-0.728789	0.221475	-0.617829
13041		9.634635	0.077187	-1.568938	0.003609	-0.001219	-0.003721	-0.629150	-0.235596	0.462646	-0.195276	-0.728794	0.221430	-0.617815
13042		9.632359	0.069382	-1.565247	0.000691	-0.002230	-0.003416	-0.633545	-0.252930	0.457275	-0.195128	-0.728829	0.221433	-0.617819
13043		9.632925	0.048542	-1.610930	-0.003657	-0.004861	-0.002912	-0.626465	-0.243408	0.457031	-0.195277	-0.728812	0.221484	-0.617774
13044		9.614154	0.051564	-1.617468	0.000131	-0.003252	-0.004143	-0.633789	-0.247314	0.465088	-0.195306	-0.728822	0.221515	-0.617742
13045		9.623658	0.077728	-1.607185	0.003176	-0.005849	-0.004464	-0.632812	-0.246338	0.458984	-0.195235	-0.728904	0.221444	-0.617693
13046		9.648549	0.101778	-1.547471	0.000391	-0.009620	-0.004377	-0.626709	-0.250244	0.471191	-0.195244	-0.728951	0.221466	-0.617627
13047		9.655250	0.093123	-1.543066	-0.001902	-0.010989	-0.003454	-0.632324	-0.246338	0.470703	-0.195179	-0.729151	0.221393	-0.617437
13048		9.669982	0.066608	-1.572062	-0.012648	-0.007646	-0.004780	-0.630127	-0.253174	0.456055	-0.195180	-0.729262	0.221402	-0.617303
13049		9.635704	0.071895	-1.560476	-0.018099	-0.001112	-0.003923	-0.635498	-0.245361	0.469971	-0.195500	-0.729181	0.221564	-0.617239
13050		9.627934	0.043664	-1.580686	-0.005606	-0.002409	-0.004655	-0.628662	-0.246338	0.452148	-0.195437	-0.729242	0.221520	-0.617203
13051		9.639224	0.052400	-1.583225	-0.001167	-0.007629	-0.004166	-0.633789	-0.250732	0.458008	-0.195558	-0.729215	0.221629	-0.617157
13052		9.659719	0.059974	-1.583606	-0.006357	-0.007464	-0.003543	-0.632324	-0.248535	0.456787	-0.195683	-0.729209	0.221710	-0.617096
13053		9.651669	0.092526	-1.547173	-0.010590	-0.005533	-0.004564	-0.623047	-0.242188	0.466064	-0.195850	-0.729174	0.221825	-0.617042
13054		9.674671	0.122149	-1.546494	-0.007105	-0.002649	-0.004345	-0.631592	-0.240479	0.459961	-0.195827	-0.729254	0.221833	-0.616953
13055		9.649820	0.125861	-1.531402	-0.009680	-0.000199	-0.002576	-0.628418	-0.250000	0.467529	-0.195852	-0.729202	0.221933	-0.616971
13056		9.629547	0.086007	-1.581641	-0.019726	0.003103	-0.003792	-0.627197	-0.249512	0.460693	-0.196015	-0.729197	0.221998	-0.616901
13057		9.627358	0.079732	-1.645265	-0.018401	0.001858	-0.002871	-0.627686	-0.244629	0.459717	-0.196231	-0.729143	0.222133	-0.616847
13058		9.611384	0.042615	-1.639697	0.003709	0.001293	-0.000717	-0.627441	-0.240967	0.460205	-0.196176	-0.729129	0.222136	-0.616880
13059		9.610771	0.078359	-1.658987	0.001315	-0.002582	-0.002803	-0.631836	-0.247559	0.465088	-0.196100	-0.729149	0.222146	-0.616877
13060		9.619317	0.113770	-1.676300	-0.007682	-0.005367	-0.004672	-0.623291	-0.247314	0.454834	-0.196122	-0.729202	0.222158	-0.616803
13061		9.621014	0.096454	-1.621932	-0.002247	-0.004936	-0.002711	-0.634766	-0.249756	0.456787	-0.196225	-0.729202	0.222253	-0.616737
13062		9.642179	0.068194	-1.602698	-0.002335	-0.006104	-0.001995	-0.637207	-0.246338	0.458984	-0.196296	-0.729173	0.222337	-0.616717
13063		9.655389	0.071934	-1.614040	-0.003603	-0.007086	-0.002826	-0.631348	-0.241699	0.465332	-0.196306	-0.729161	0.222403	-0.616705
13064		9.615879	0.068377	-1.621528	-0.009112	0.002521	-0.002249	-0.626465	-0.251221	0.451416	-0.196266	-0.729145	0.222425	-0.616729
13065		9.638956	0.083845	-1.623530	0.003487	0.002884	0.000221	-0.625244	-0.248047	0.465576	-0.196397	-0.729044	0.222523	-0.616770
13066		9.644135	0.078723	-1.608023	0.005422	-0.000904	-0.001764	-0.633789	-0.258789	0.463379	-0.196299	-0.729124	0.222440	-0.616738
13067		9.614510	0.113221	-1.599549	0.003127	-0.001912	-0.004969	-0.628418	-0.253906	0.455322	-0.196387	-0.729154	0.222379	-0.616697
13068		9.648104	0.084270	-1.621654	0.005076	-0.004364	-0.003230	-0.637207	-0.245361	0.457031	-0.196483	-0.729152	0.222406	-0.616658
13069		9.638743	0.085078	-1.557204	0.000585	-0.005090	-0.002301	-0.623047	-0.244629	0.463135	-0.196456	-0.729120	0.222448	-0.616689
13070		9.664715	0.100094	-1.537043	-0.004034	-0.002208	-0.001351	-0.630615	-0.241699	0.463867	-0.196428	-0.729170	0.222467	-0.616632
13071		9.655960	0.080138	-1.585249	0.003518	-0.002377	-0.003011	-0.620117	-0.255127	0.458984	-0.196280	-0.729217	0.222402	-0.616648
13072		9.641488	0.086676	-1.603347	0.011266	0.001975	-0.002580	-0.630615	-0.256104	0.456787	-0.196329	-0.729247	0.222342	-0.616618
13073		9.617956	0.106999	-1.619442	0.011812	0.001299	-0.001449	-0.625732	-0.250732	0.456299	-0.196375	-0.729213	0.222314	-0.616653
13074		9.631478	0.109803	-1.628932	0.004181	0.001149	0.000725	-0.629883	-0.242676	0.455566	-0.196419	-0.729176	0.222361	-0.616667
13075		9.626324	0.100933	-1.580088	0.001570	-0.000288	-0.000622	-0.634033	-0.250732	0.463135	-0.196379	-0.729128	0.222398	-0.616723
13076		9.645914	0.103680	-1.611026	0.000222	-0.001591	-0.000938	-0.627930	-0.250488	0.464355	-0.196369	-0.729131	0.222399	-0.616722
13077		9.617825	0.093904	-1.623502	-0.001396	0.002624	-0.000810	-0.633545	-0.255615	0.459717	-0.196384	-0.729133	0.222394	-0.616716
13078		9.633261	0.092381	-1.641874	-0.003100	-0.004200	0.001942	-0.631104	-0.259766	0.468506	-0.196479	-0.729111	0.222499	-0.616675
13079		9.636110	0.078465	-1.623273	0.000769	-0.002267	0.000193	-0.629395	-0.248535	0.459229	-0.196527	-0.729169	0.222490	-0.616593
13080		9.641383	0.086420	-1.603987	0.002986	-0.000365	-0.000418	-0.629395	-0.249023	0.460693	-0.196511	-0.729156	0.222502	-0.616610
13081		9.658000	0.088826	-1.590129	-0.000789	-0.000281	0.000412	-0.627930	-0.250000	0.458496	-0.196516	-0.729142	0.222539	-0.616611
13082		9.630143	0.091886	-1.597949	0.003573	0.004054	-0.000498	-0.630371	-0.254883	0.461182	-0.196540	-0.729096	0.222547	-0.616655
13083		9.618559	0.071013	-1.600506	0.009438	-0.000391	-0.000011	-0.620605	-0.244629	0.464111	-0.196525	-0.729107	0.222516	-0.616658
13084		9.636151	0.078142	-1.623048	-0.004106	-0.001679	-0.001037	-0.627930	-0.245361	0.464844	-0.196501	-0.729166	0.222534	-0.616589
13085		9.637168	0.069470	-1.595037	-0.002651	0.003339	-0.002044	-0.629150	-0.250488	0.465088	-0.196468	-0.729168	0.222510	-0.616607
13086		9.646615	0.068558	-1.591448	0.006324	0.003582	0.000426	-0.628906	-0.251953	0.460449	-0.196397	-0.729177	0.222452	-0.616639
13087		9.636418	0.078755	-1.621430	-0.002037	0.001283	-0.001024	-0.635986	-0.249512	0.462158	-0.196472	-0.729151	0.222496	-0.616631
13088		9.617859	0.081142	-1.626567	-0.002819	0.001852	-0.000814	-0.629395	-0.251221	0.456543	-0.196486	-0.729105	0.222518	-0.616673
13089		9.618095	0.094447	-1.621868	-0.002980	0.001214	0.000215	-0.640625	-0.253662	0.460693	-0.196585	-0.729042	0.222610	-0.616682
13090		9.631568	0.097741	-1.631630	-0.007093	-0.001315	-0.000621	-0.628906	-0.252686	0.459717	-0.196679	-0.728981	0.222694	-0.616695
13091		9.643907	0.096764	-1.605856	-0.012629	-0.004615	-0.001460	-0.626465	-0.251221	0.469482	-0.196848	-0.728972	0.222837	-0.616599
13092		9.648923	0.092468	-1.591318	-0.000097	-0.001655	-0.003210	-0.627441	-0.249268	0.467529	-0.196822	-0.729061	0.222781	-0.616522
13093		9.655900	0.070485	-1.588719	-0.002504	0.002279	-0.002669	-0.630615	-0.250977	0.465088	-0.196814	-0.729093	0.222747	-0.616499
13094		9.650743	0.063240	-1.607312	-0.001137	0.006129	-0.002958	-0.633057	-0.255127	0.465332	-0.196840	-0.729069	0.222710	-0.616533
13095		9.636609	0.082952	-1.620087	0.003788	0.001615	-0.001233	-0.629883	-0.250732	0.463135	-0.196834	-0.729079	0.222667	-0.616539
13096		9.644171	0.099874	-1.604074	0.004029	0.002572	-0.002776	-0.626953	-0.249756	0.469727	-0.196817	-0.729082	0.222616	-0.616558
13097		9.647444	0.099724	-1.579583	0.000894	0.003997	-0.001734	-0.631348	-0.240967	0.456543	-0.196763	-0.729125	0.222545	-0.616551
13098		9.642189	0.079063	-1.602139	-0.002857	0.007477	-0.001712	-0.629639	-0.253662	0.470215	-0.196761	-0.729016	0.222580	-0.616667
13099		9.664237	0.090661	-1.635513	0.000031	0.004246	-0.001009	-0.637451	-0.243408	0.462891	-0.196738	-0.729048	0.222517	-0.616659
13100		9.628055	0.072779	-1.621605	-0.000019	0.008174	-0.001503	-0.638428	-0.249268	0.458252	-0.196667	-0.728967	0.222481	-0.616791
13101		9.609518	0.048982	-1.633372	0.001346	0.012025	-0.001792	-0.622803	-0.255127	0.466797	-0.196702	-0.728822	0.222471	-0.616955
13102		9.622194	0.048622	-1.673404	0.007103	0.003378	-0.003907	-0.626709	-0.245361	0.458740	-0.196694	-0.728891	0.222357	-0.616917
13103		9.620071	0.114199	-1.606336	0.008600	0.003258	-0.000088	-0.624756	-0.245850	0.459717	-0.196607	-0.728876	0.222323	-0.616974
13104		9.662342	0.078708	-1.587226	0.009578	0.008424	-0.002538	-0.627686	-0.248047	0.467529	-0.196545	-0.728846	0.222239	-0.617060
13105		9.658518	0.074883	-1.572521	0.008800	0.009842	-0.002531	-0.625488	-0.251953	0.462646	-0.196437	-0.728853	0.222089	-0.617141
13106		9.657843	0.070943	-1.602072	0.015814	0.011691	-0.001592	-0.624756	-0.249023	0.464111	-0.196356	-0.728831	0.221938	-0.617247
13107		9.630758	0.099749	-1.598665	0.019055	0.014473	-0.000030	-0.632568	-0.248047	0.455566	-0.196199	-0.728805	0.221753	-0.617393
13108		9.619800	0.091779	-1.594243	0.011481	0.011601	-0.001698	-0.630615	-0.248047	0.464355	-0.196174	-0.728695	0.221694	-0.617553
13109		9.632709	0.103316	-1.561221	0.014673	0.007099	-0.002439	-0.633301	-0.243896	0.461914	-0.196032	-0.728705	0.221533	-0.617644
13110		9.651545	0.087946	-1.557612	0.020840	0.012598	-0.001587	-0.628174	-0.253906	0.459717	-0.195820	-0.728657	0.221335	-0.617839
13111		9.628906	0.059260	-1.556422	0.010450	0.011216	0.000052	-0.630127	-0.245361	0.465088	-0.195822	-0.728593	0.221269	-0.617936
13112		9.652457	0.087645	-1.551966	0.008253	0.012217	-0.004075	-0.630859	-0.240723	0.464844	-0.195738	-0.728562	0.221119	-0.618054
13113		9.644832	0.105943	-1.515206	0.022255	0.014224	-0.001783	-0.631592	-0.248047	0.456543	-0.195468	-0.728538	0.220873	-0.618255
13114		9.640352	0.123642	-1.523312	0.013346	0.010538	0.000155	-0.639160	-0.247070	0.458252	-0.195412	-0.728452	0.220811	-0.618397
13115		9.629517	0.129477	-1.583925	-0.012846	0.007328	0.001454	-0.622070	-0.249756	0.462402	-0.195531	-0.728311	0.220950	-0.618475
13116		9.628660	0.112479	-1.618563	-0.010570	0.007003	0.000940	-0.627930	-0.252686	0.451660	-0.195652	-0.728275	0.221028	-0.618452
13117		9.623179	0.064404	-1.580636	0.004537	0.009715	0.000971	-0.634521	-0.247559	0.450195	-0.195763	-0.728154	0.221092	-0.618536
13118		9.633369	0.027410	-1.556621	0.009546	0.006374	0.001999	-0.625244	-0.252930	0.460938	-0.195754	-0.728037	0.221132	-0.618662
13119		9.656631	0.055130	-1.553950	0.003470	0.002041	0.000426	-0.637695	-0.249268	0.463135	-0.195780	-0.728054	0.221135	-0.618633
13120		9.641551	0.082631	-1.526015	0.012075	0.008702	-0.000467	-0.637451	-0.241943	0.463135	-0.195662	-0.728018	0.221012	-0.618757
13121		9.648402	0.107658	-1.536519	0.007109	0.006913	0.003339	-0.632812	-0.239502	0.466309	-0.195481	-0.727975	0.220949	-0.618887
13122		9.643758	0.125452	-1.545829	-0.008994	0.007565	0.000111	-0.633057	-0.253418	0.460205	-0.195434	-0.727936	0.220948	-0.618948
13123		9.646700	0.085521	-1.532794	-0.004426	0.009957	0.002399	-0.638916	-0.243164	0.464844	-0.195528	-0.727839	0.221007	-0.619011
13124		9.625045	0.048095	-1.572791	0.004366	0.008231	0.002204	-0.634033	-0.254639	0.464844	-0.195381	-0.727793	0.220939	-0.619137
13125		9.646603	0.018713	-1.550504	0.000963	0.003960	0.001873	-0.631348	-0.238525	0.455566	-0.195374	-0.727792	0.220917	-0.619148
13126		9.637906	0.058704	-1.539371	-0.001229	0.005454	0.001667	-0.630859	-0.257812	0.464355	-0.195341	-0.727712	0.220982	-0.619229
13127		9.644806	0.097326	-1.546251	0.004191	0.004551	-0.000079	-0.632568	-0.258301	0.459473	-0.195360	-0.727729	0.220922	-0.619224
13128		9.633435	0.076313	-1.547696	0.006016	0.008261	0.001073	-0.627197	-0.245850	0.460449	-0.195409	-0.727678	0.220896	-0.619278
13129		9.645013	0.070395	-1.551838	-0.001790	0.003580	0.001142	-0.638916	-0.246094	0.457520	-0.195409	-0.727666	0.220926	-0.619281
13130		9.629394	0.058874	-1.537340	0.004652	0.002214	-0.002149	-0.622314	-0.246582	0.457520	-0.195374	-0.727630	0.220902	-0.619343
13131		9.632451	0.058515	-1.513171	0.013291	0.001549	-0.001717	-0.630615	-0.251465	0.447021	-0.195298	-0.727675	0.220823	-0.619343
13132		9.646058	0.074683	-1.519013	0.009248	-0.004914	-0.002056	-0.637695	-0.252686	0.466309	-0.195366	-0.727659	0.220887	-0.619317
13133		9.673997	0.098042	-1.503323	-0.003411	-0.005970	0.000078	-0.632080	-0.248047	0.464844	-0.195354	-0.727725	0.220902	-0.619238
13134		9.641346	0.057933	-1.512862	0.004087	-0.000509	-0.002469	-0.632324	-0.253418	0.453125	-0.195291	-0.727781	0.220830	-0.619217
13135		9.649779	0.066218	-1.538222	-0.007321	-0.002277	0.000905	-0.637207	-0.240967	0.466064	-0.195449	-0.727734	0.220987	-0.619167
13136		9.642661	0.089354	-1.541820	-0.005919	-0.005396	-0.002198	-0.634766	-0.252441	0.460693	-0.195376	-0.727793	0.220986	-0.619121
13137		9.647533	0.084820	-1.527582	-0.000412	-0.003785	-0.000941	-0.631836	-0.242188	0.448730	-0.195399	-0.727822	0.221009	-0.619071
13138		9.661156	0.026405	-1.527643	0.009242	-0.005762	-0.001855	-0.630127	-0.247559	0.458008	-0.195356	-0.727819	0.221046	-0.619075
13139		9.658151	0.053466	-1.544530	-0.006723	-0.008225	-0.001174	-0.632080	-0.244385	0.459473	-0.195420	-0.727863	0.221148	-0.618967
13140		9.632302	0.078859	-1.554607	-0.008127	-0.006451	-0.001791	-0.632324	-0.245117	0.459961	-0.195459	-0.727894	0.221232	-0.618888
13141		9.624918	0.089178	-1.563198	0.002320	-0.007297	-0.003321	-0.632324	-0.246094	0.465332	-0.195414	-0.727963	0.221221	-0.618825
13142		9.639614	0.061748	-1.523707	0.007092	-0.011239	-0.004873	-0.626709	-0.256348	0.457520	-0.195292	-0.728113	0.221126	-0.618721
13143		9.648256	0.035314	-1.531825	0.001683	-0.008639	-0.003533	-0.632812	-0.239258	0.467285	-0.195390	-0.728189	0.221169	-0.618585
13144		9.652362	0.053206	-1.541643	0.003671	-0.004293	-0.003414	-0.630371	-0.237549	0.461670	-0.195233	-0.728279	0.221074	-0.618563
13145		9.622446	0.087667	-1.534681	-0.002246	-0.008345	-0.001886	-0.628662	-0.244629	0.452881	-0.195146	-0.728351	0.221096	-0.618498
13146		9.614242	0.133438	-1.563908	-0.010386	-0.016495	-0.003264	-0.625000	-0.241211	0.465576	-0.195267	-0.728415	0.221281	-0.618318
13147		9.656506	0.077557	-1.594542	-0.011879	-0.015888	-0.003161	-0.635498	-0.244873	0.461914	-0.195264	-0.728567	0.221352	-0.618114
13148		9.661618	0.025060	-1.566939	-0.007349	-0.007020	-0.001992	-0.635010	-0.244141	0.461914	-0.195281	-0.728598	0.221419	-0.618048
13149		9.652181	0.039852	-1.567121	-0.000826	-0.006719	-0.002088	-0.627197	-0.241699	0.455811	-0.195234	-0.728644	0.221435	-0.618004
13150		9.642604	0.041130	-1.571604	0.010723	-0.007211	-0.001769	-0.626221	-0.251953	0.461914	-0.195131	-0.728702	0.221421	-0.617973
13151		9.612419	0.049063	-1.641998	0.016678	-0.009632	-0.002185	-0.630859	-0.240723	0.463379	-0.195006	-0.728839	0.221325	-0.617885
13152		9.615464	0.074822	-1.680335	0.023673	-0.008623	-0.001042	-0.628418	-0.248779	0.457031	-0.194694	-0.728975	0.221148	-0.617887
13153		9.613111	0.078714	-1.673831	0.034911	-0.006635	-0.003612	-0.623047	-0.245361	0.458740	-0.194445	-0.729091	0.220942	-0.617902
13154		9.649151	0.083230	-1.829277	0.085199	-0.009266	-0.009274	-0.635010	-0.247070	0.463135	-0.193743	-0.729392	0.220279	-0.618003
13155		9.713096	-0.031652	-1.638281	0.104792	0.010494	-0.006048	-0.632812	-0.235107	0.455566	-0.192858	-0.729565	0.219417	-0.618383
13156		9.731647	-0.026577	-1.655477	0.065952	0.031025	-0.007721	-0.632568	-0.241211	0.457520	-0.192372	-0.729445	0.218838	-0.618880
13157		9.749206	0.065218	-1.568476	0.030887	0.031579	-0.017971	-0.630615	-0.245850	0.461914	-0.192333	-0.729278	0.218435	-0.619231
13158		9.732124	0.001138	-1.671899	0.003739	-0.034083	-0.025761	-0.629639	-0.246826	0.472900	-0.192429	-0.729613	0.218299	-0.618855
13159		9.667480	0.100785	-1.434477	-0.027893	-0.007208	-0.044715	-0.630127	-0.244873	0.462158	-0.192947	-0.729785	0.218073	-0.618570
13160		9.861319	0.187691	-1.432017	-0.091087	0.058063	-0.057525	-0.626465	-0.245850	0.448486	-0.194383	-0.729261	0.218153	-0.618710
13161		9.908279	0.143543	-1.408096	-0.151990	0.119409	-0.083844	-0.628906	-0.253906	0.464111	-0.196855	-0.728115	0.218431	-0.619181
13162		9.983394	0.193710	-1.054788	-0.169309	0.199013	-0.101326	-0.633789	-0.252686	0.450684	-0.199713	-0.726465	0.218323	-0.620240
13163		10.227781	0.351327	-0.856591	-0.210400	0.324356	-0.122496	-0.636719	-0.257080	0.448730	-0.203473	-0.723718	0.218089	-0.622308
13164		10.131012	0.595859	-0.430947	-0.300138	0.500277	-0.146029	-0.642822	-0.270264	0.437988	-0.208659	-0.719439	0.217836	-0.625633
13165		10.010622	0.539467	0.193968	-0.557195	0.781371	-0.135248	-0.649414	-0.272949	0.417725	-0.216892	-0.712176	0.218963	-0.630729
13166		10.027299	0.565643	0.124445	-0.690787	0.975111	-0.116305	-0.654297	-0.286865	0.395996	-0.226636	-0.702817	0.220754	-0.637144
13167		9.548716	0.314996	-0.446358	-0.659673	1.060183	-0.069034	-0.665527	-0.280762	0.372070	-0.235980	-0.692574	0.222438	-0.644341
13168		9.187944	0.114046	-0.517485	-0.656769	0.985017	0.023100	-0.675537	-0.295410	0.349609	-0.244169	-0.682518	0.225042	-0.651082
13169		9.695768	-0.216585	-0.570032	-0.554535	1.028168	0.111965	-0.682373	-0.294678	0.328369	-0.250932	-0.672008	0.227426	-0.658571
13170		9.418823	-0.510481	-0.650705	-0.408748	1.112151	0.216686	-0.691650	-0.298584	0.308105	-0.255763	-0.660826	0.229171	-0.667364
13171		9.448942	-0.527166	0.551813	-0.214959	1.330576	0.217784	-0.708252	-0.296143	0.282227	-0.259577	-0.648283	0.228543	-0.678319
13172		9.253799	-0.638682	0.996254	-0.348921	1.654123	0.195681	-0.724365	-0.286865	0.251465	-0.265481	-0.632365	0.227744	-0.691207
13173		8.625145	-0.426472	1.775169	-0.480636	1.870158	0.204112	-0.737061	-0.281250	0.212158	-0.272724	-0.613790	0.227320	-0.705131
13174		7.721914	0.079822	2.148465	-0.580988	1.824307	0.339223	-0.743164	-0.282959	0.176514	-0.279234	-0.594509	0.228881	-0.718472
13175		7.952401	1.002981	2.301023	-0.395082	1.526159	0.391426	-0.755859	-0.280518	0.135254	-0.282954	-0.578132	0.230051	-0.729916
13176		8.714772	0.926411	1.466060	-0.254678	1.560413	0.416118	-0.764160	-0.275635	0.105957	-0.285536	-0.561529	0.229963	-0.741803
13177		9.069325	0.458852	2.938483	-0.476162	1.585102	0.295818	-0.772217	-0.258057	0.077393	-0.290728	-0.544032	0.230854	-0.752471
13178		9.006236	-0.655004	3.609301	-0.636719	1.441730	0.286556	-0.771729	-0.262939	0.043701	-0.296392	-0.527125	0.233705	-0.761362
13179		8.935107	-1.331874	3.214127	-0.464677	1.535781	0.456600	-0.773926	-0.245361	0.005371	-0.299580	-0.509238	0.235504	-0.771665
13180		7.850032	-1.101522	3.520324	-0.036465	1.424758	0.545570	-0.782715	-0.239258	-0.023193	-0.298755	-0.493470	0.234223	-0.782543
13181		7.366502	-0.291596	3.721703	0.151959	1.133863	0.301500	-0.776367	-0.227539	-0.037354	-0.298231	-0.481819	0.230570	-0.791041
13182		9.011130	0.151389	5.175044	0.027090	0.769286	0.048891	-0.774658	-0.234619	-0.046387	-0.299782	-0.474026	0.227989	-0.795896
13183		10.431515	-0.707751	5.790006	-0.063951	0.537932	0.097287	-0.780273	-0.222168	-0.057373	-0.300706	-0.468114	0.227268	-0.799246
13184		9.872393	-1.539019	5.023279	-0.061242	0.278174	0.129655	-0.777100	-0.218506	-0.075439	-0.300469	-0.464669	0.227927	-0.801156
13185		10.348709	-2.181575	4.152437	0.177942	-0.081744	0.012128	-0.781006	-0.221191	-0.058594	-0.299168	-0.465884	0.226961	-0.801211
13186		11.929232	-2.864789	4.608587	0.637717	-0.580974	-0.184996	-0.782715	-0.217041	-0.049316	-0.295544	-0.474554	0.221980	-0.798860
13187		15.228317	-2.002150	5.495223	1.062469	-1.191070	-0.324818	-0.784668	-0.232178	-0.016602	-0.289065	-0.491039	0.214416	-0.793314
13188		19.096894	-0.130714	3.025511	1.257880	-2.069829	-0.250887	-0.771729	-0.236328	0.034668	-0.278074	-0.516488	0.208202	-0.782666
13189		21.291326	1.813575	0.562671	1.012555	-2.916604	-0.189418	-0.770264	-0.236816	0.089355	-0.265521	-0.548631	0.207405	-0.765171
13190		21.557898	3.024459	0.166190	0.378267	-3.349818	-0.267180	-0.756592	-0.243652	0.162842	-0.256558	-0.581998	0.213390	-0.741567
13191		15.294313	1.866670	0.928205	-0.410893	-3.252467	-0.263778	-0.747803	-0.252930	0.220947	-0.253010	-0.611030	0.225858	-0.715274
13192		8.097873	1.430060	2.663726	0.122218	-2.893026	-0.512688	-0.732422	-0.259521	0.271484	-0.248229	-0.638281	0.230178	-0.691374
13193		2.452028	1.355367	9.260565	0.258475	-2.143038	-0.979754	-0.714844	-0.277588	0.311279	-0.248270	-0.660034	0.227125	-0.671663
13194		3.485089	-1.176549	6.385702	-0.669785	-0.858889	-0.570253	-0.718018	-0.293945	0.321777	-0.256033	-0.666585	0.231054	-0.660852
13195		5.984178	-7.612674	2.383220	-0.588846	0.575478	0.497254	-0.716309	-0.285156	0.298828	-0.258368	-0.658276	0.238647	-0.665557
13196		0.421925	-4.024816	-0.287678	0.317407	1.464550	0.752438	-0.750977	-0.269043	0.277100	-0.253801	-0.644499	0.237902	-0.680888
13197		-1.878984	-0.067302	-2.446964	1.406070	1.177469	0.334297	-0.751221	-0.256104	0.262451	-0.242998	-0.637588	0.225247	-0.695484
13198		-0.971523	1.177544	-1.954668	1.762809	0.367050	0.015154	-0.758789	-0.246094	0.268555	-0.229792	-0.639479	0.209017	-0.703260
13199		-0.556129	2.097085	-1.167032	1.131303	0.107895	0.003393	-0.757324	-0.235107	0.274414	-0.220971	-0.641681	0.198844	-0.707021
13200		0.736192	2.710558	-0.638211	-0.074543	0.112505	0.207975	-0.748779	-0.222656	0.274170	-0.220000	-0.639950	0.200916	-0.708306
13201		1.400991	1.302933	1.030612	-0.889703	0.448293	0.313794	-0.759277	-0.232422	0.256592	-0.225433	-0.632688	0.210100	-0.710454
13202		2.706594	-0.572934	3.223890	-1.045225	0.999988	0.377952	-0.746338	-0.225586	0.230469	-0.232917	-0.619753	0.219529	-0.716563
13203		6.896674	-3.656857	7.510210	-1.472702	1.834860	0.889079	-0.772949	-0.218018	0.190186	-0.241264	-0.596283	0.234162	-0.728976
13204		15.852661	-8.252112	-4.748829	-0.102842	2.599769	1.870580	-0.784180	-0.179199	0.133545	-0.232378	-0.566327	0.241017	-0.753117
13205		14.808403	-1.426358	4.679015	2.588512	2.716164	1.197707	-0.784180	-0.155762	0.096191	-0.210691	-0.543971	0.217033	-0.782689
13206		23.011202	5.114060	10.010419	1.849062	2.624418	-0.140000	-0.788818	-0.157959	0.055664	-0.206427	-0.523113	0.190938	-0.804539
13207		20.990172	8.220233	6.579049	-0.069499	3.188672	0.040030	-0.791748	-0.153564	-0.014160	-0.213883	-0.490383	0.183488	-0.824688
13208		7.796547	1.050101	2.620353	-1.784149	1.966480	0.268054	-0.794434	-0.144775	-0.049072	-0.226389	-0.464468	0.198102	-0.832930
13209		4.610965	-5.598026	1.797799	-1.432979	0.898183	0.263009	-0.792969	-0.141602	-0.073242	-0.234085	-0.450343	0.211935	-0.835152
13210		9.493340	-5.659597	4.125304	-0.286126	0.098465	-0.086611	-0.787354	-0.138428	-0.077393	-0.236798	-0.448740	0.214097	-0.834698
13211		17.262770	-3.073652	8.702298	0.677688	-0.023507	-0.318261	-0.788574	-0.146973	-0.082520	-0.236212	-0.451840	0.205317	-0.835398
13212		17.348865	1.474188	8.205563	0.073297	0.090666	-0.315202	-0.791748	-0.151611	-0.081543	-0.239288	-0.451909	0.202496	-0.835173
13213		6.339858	0.779902	4.190933	-0.606389	-0.342793	-0.037841	-0.790039	-0.154053	-0.077148	-0.242210	-0.453754	0.209656	-0.831556
13214		4.717370	-2.666110	5.442971	-0.387875	-0.467372	-0.339643	-0.787598	-0.164307	-0.066895	-0.246657	-0.458321	0.213129	-0.826848
13215		9.779002	-0.996328	4.176549	0.014373	-0.386665	-0.416196	-0.797607	-0.166992	-0.064453	-0.249757	-0.463488	0.211673	-0.823404
13216		10.830337	-0.092451	4.392241	-0.112116	-0.432765	-0.358336	-0.786377	-0.174805	-0.051270	-0.252924	-0.468519	0.212117	-0.819467
13217		8.774746	-1.212229	4.531489	-0.238085	-0.401798	-0.346084	-0.782471	-0.179199	-0.035645	-0.256746	-0.472803	0.213768	-0.815378
13218		6.787553	-2.717026	3.928315	-0.084768	-0.353535	-0.300042	-0.785889	-0.190918	-0.031982	-0.259326	-0.476964	0.214030	-0.812063
13219		6.666536	-2.707109	3.882212	0.091345	-0.243805	-0.188511	-0.785645	-0.188965	-0.037598	-0.259966	-0.480278	0.212697	-0.810254
13220		7.503562	-1.664246	4.260885	0.194670	-0.060672	-0.007445	-0.787354	-0.193848	-0.033447	-0.258699	-0.481526	0.210901	-0.810388
13221		7.695688	-0.975724	4.482066	0.143104	0.112888	0.154738	-0.796631	-0.194336	-0.026611	-0.256508	-0.480440	0.209952	-0.811973
13222		7.092243	-1.398006	5.045030	0.089799	0.172466	0.216030	-0.789307	-0.188232	-0.041016	-0.254149	-0.478448	0.209720	-0.813949
13223		7.180045	-1.776363	5.570840	0.167329	0.196359	0.228366	-0.791992	-0.178467	-0.035645	-0.251259	-0.476378	0.208642	-0.816334
13224		7.794885	-1.739749	5.449410	0.318958	0.241809	0.338611	-0.779785	-0.178467	-0.046875	-0.246525	-0.474020	0.206717	-0.819633
13225		8.009771	-2.834174	5.971529	0.541440	0.104081	0.343756	-0.788818	-0.165527	-0.040039	-0.239926	-0.473731	0.202660	-0.822766
13226		9.988816	-3.209086	6.868270	0.972536	-0.591968	0.283434	-0.789062	-0.170410	-0.030273	-0.229715	-0.481963	0.196148	-0.822477
13227		14.591878	-1.040455	6.421691	1.232085	-1.458196	0.199685	-0.786133	-0.162842	0.010498	-0.216453	-0.499883	0.188551	-0.817137
13228		19.405257	1.535099	3.967382	1.203929	-2.464548	0.054664	-0.795410	-0.160645	0.064941	-0.202335	-0.527918	0.183011	-0.804282
13229		22.938707	5.359526	2.711132	0.932847	-3.273217	-0.163814	-0.789551	-0.157227	0.134033	-0.190089	-0.563100	0.180590	-0.783691
13230		23.994302	5.186670	2.473266	-0.438463	-3.416309	-0.350909	-0.771973	-0.161621	0.200684	-0.188710	-0.595793	0.190434	-0.757070
13231		14.758408	0.990884	1.707731	-1.282316	-2.987280	-0.472040	-0.759277	-0.181885	0.251221	-0.195467	-0.621660	0.206123	-0.729963
13232		4.919970	-0.816905	4.196823	-0.491252	-2.478356	-1.008203	-0.746338	-0.212646	0.286133	-0.201973	-0.645319	0.208772	-0.706530
13233		-0.041695	-1.729388	6.628497	-0.515354	-1.664280	-1.065611	-0.726318	-0.227539	0.322510	-0.211103	-0.661278	0.208623	-0.688930
13234		3.299525	-4.507794	0.995051	-0.994582	-0.808974	-0.356481	-0.726074	-0.245361	0.324951	-0.220258	-0.666440	0.216447	-0.678598
13235		4.600534	-4.817812	0.405536	-0.251536	0.283352	0.173734	-0.740234	-0.241211	0.319580	-0.221664	-0.662808	0.219274	-0.680786
13236		-0.264049	-2.925017	-0.673710	0.433900	0.822333	0.315153	-0.751709	-0.230469	0.314941	-0.217688	-0.655999	0.216128	-0.689613
13237		-1.337152	-0.739980	-0.166036	1.358880	0.570005	0.066529	-0.750488	-0.219238	0.312012	-0.207523	-0.654431	0.203633	-0.697988
13238		0.453718	2.155800	0.648788	1.431750	0.278669	-0.241340	-0.757324	-0.210938	0.311035	-0.198599	-0.656196	0.188517	-0.703155
13239		0.521481	3.463516	0.461024	0.325793	0.470413	-0.149775	-0.751709	-0.215332	0.307617	-0.198347	-0.653186	0.183311	-0.707392
13240		0.396435	1.975101	0.915474	-0.797956	0.613244	0.170365	-0.751953	-0.210693	0.284424	-0.204725	-0.645343	0.190201	-0.710946
13241		0.652433	-0.521430	1.859080	-1.267210	0.830390	0.270150	-0.757080	-0.213867	0.268555	-0.214465	-0.633955	0.201470	-0.715203
13242		2.184909	-1.757890	1.321443	-1.454423	0.888549	0.190572	-0.757812	-0.222900	0.244385	-0.226452	-0.621486	0.213539	-0.718941
13243		5.454725	-3.214859	1.576844	-1.279946	1.373811	0.616933	-0.760254	-0.202637	0.205078	-0.234421	-0.603682	0.225851	-0.727740
13244		15.765195	-5.699687	-2.589681	0.085947	2.237484	1.332343	-0.781250	-0.192871	0.171875	-0.227834	-0.579488	0.228484	-0.748385
13245		17.841584	-6.781907	2.338929	2.008638	1.900797	1.375050	-0.785400	-0.138916	0.136230	-0.205665	-0.563074	0.214092	-0.771242
13246		29.526568	1.262674	13.705336	1.700796	2.492219	0.182854	-0.792480	-0.145996	0.100830	-0.198475	-0.542511	0.192575	-0.793224
13247		21.715071	10.316632	3.628682	0.870017	2.458541	0.261305	-0.799316	-0.136719	0.045898	-0.195773	-0.519386	0.179536	-0.812206
13248		5.538252	0.664967	-0.817146	-1.198552	0.972764	0.352564	-0.798828	-0.138184	0.029053	-0.202083	-0.505688	0.191546	-0.816549
13249		3.496379	-2.383442	-0.737603	-0.817928	-0.393665	0.034270	-0.799316	-0.129395	0.037354	-0.205893	-0.507554	0.201009	-0.812153
13250		14.535204	-0.808254	4.223330	-0.089252	-1.056795	-0.505468	-0.803711	-0.145264	0.060791	-0.208891	-0.519283	0.201432	-0.803825
13251		25.061624	-0.220458	11.130415	-0.368472	-0.610485	-0.708262	-0.781250	-0.144287	0.070557	-0.216810	-0.526224	0.202100	-0.797018
13252		11.547634	0.267871	0.182350	-1.097924	-0.501464	-0.373474	-0.792725	-0.162842	0.072510	-0.226464	-0.529126	0.212016	-0.789803
13253		3.571014	-5.783429	1.633727	-0.410170	-1.006554	-0.465964	-0.794678	-0.170898	0.092041	-0.231066	-0.539090	0.215821	-0.780648
13254		5.664668	-5.278732	2.618099	0.771058	-1.114583	-0.456621	-0.779297	-0.188232	0.127930	-0.227286	-0.553338	0.208484	-0.773752
13255		9.847079	-1.428624	1.951009	0.766372	-1.040348	-0.238370	-0.775879	-0.185059	0.134033	-0.221513	-0.566157	0.202333	-0.767763
13256		10.605428	1.120011	3.029819	0.419217	-0.628126	-0.071687	-0.778320	-0.188477	0.153809	-0.217623	-0.573499	0.199541	-0.764148
13257		7.398721	0.488586	3.529900	-0.185520	-0.370129	0.059086	-0.779785	-0.189697	0.157959	-0.217438	-0.576384	0.202726	-0.761186
13258		5.895565	-0.383490	4.068344	-0.577676	-0.151397	0.008044	-0.780273	-0.191895	0.160156	-0.221102	-0.576227	0.208643	-0.758647
13259		6.180197	-1.155410	4.220504	-0.451768	0.115908	0.012980	-0.768799	-0.190918	0.154785	-0.224499	-0.573844	0.212656	-0.758341
13260		7.684331	-1.405268	5.107529	-0.262084	0.543002	0.129982	-0.778564	-0.184082	0.143799	-0.226547	-0.567607	0.214500	-0.761898
13261		8.281957	-1.694206	5.133683	-0.421962	1.054092	0.379322	-0.781982	-0.184570	0.116943	-0.228725	-0.555283	0.218252	-0.769228
13262		8.108695	-1.829124	5.192330	-0.570053	1.503673	0.443112	-0.791260	-0.181396	0.080566	-0.232426	-0.537868	0.222392	-0.779242
13263		6.773237	-1.026681	4.245698	-0.113066	1.500244	0.407486	-0.797607	-0.163818	0.057861	-0.233270	-0.521695	0.221693	-0.790109
13264		6.079670	-0.110113	2.774399	0.658779	1.122014	0.437848	-0.794678	-0.154297	0.034912	-0.227718	-0.511227	0.214786	-0.800411
13265		7.049796	-1.582756	2.732524	0.806955	1.046159	0.446523	-0.791260	-0.149170	0.018555	-0.220851	-0.501765	0.206567	-0.810424
13266		9.550569	-1.154182	3.553380	0.778987	0.718032	0.287017	-0.790283	-0.138916	0.008789	-0.214830	-0.495854	0.198400	-0.817688
13267		12.879583	-1.314289	5.087392	0.737035	-0.224829	0.239007	-0.799805	-0.135254	0.018311	-0.207223	-0.499507	0.192949	-0.818732
13268		19.080340	-1.137612	7.375556	0.851342	-1.152792	0.090468	-0.793701	-0.135010	0.044189	-0.198143	-0.513209	0.187776	-0.813693
13269		25.757175	0.707743	6.992402	0.886384	-1.824659	-0.176894	-0.786621	-0.123779	0.081055	-0.189859	-0.534220	0.182035	-0.803384
13270		23.967550	2.194897	2.160111	0.390920	-2.423351	-0.273191	-0.790283	-0.136230	0.133301	-0.184440	-0.559817	0.182171	-0.787020
13271		19.152085	0.609800	-0.446092	-0.154985	-2.995974	-0.337945	-0.775879	-0.139893	0.185791	-0.181893	-0.589298	0.188177	-0.764351
13272		13.308690	1.904361	0.087922	-0.552359	-3.040703	-0.557351	-0.762695	-0.158936	0.246582	-0.184014	-0.617925	0.196246	-0.738780
13273		6.026930	1.721597	2.818627	-0.187570	-2.724288	-0.985229	-0.746826	-0.173828	0.299072	-0.187750	-0.644662	0.196532	-0.714518
13274		2.663486	1.485673	7.533303	-0.630955	-1.954376	-1.276399	-0.738525	-0.202881	0.332764	-0.199355	-0.663460	0.196535	-0.693868
13275		2.231195	-2.527929	1.343752	-1.601312	-1.082701	-0.718073	-0.729248	-0.226562	0.343262	-0.216146	-0.670365	0.207252	-0.678924
13276		3.461124	-7.521710	-1.049994	-0.610571	-0.134036	0.235726	-0.724854	-0.236816	0.341309	-0.218923	-0.669163	0.214976	-0.676816
13277		-0.715290	-2.987643	0.034647	0.248484	0.250517	0.268924	-0.733154	-0.229736	0.341553	-0.215238	-0.666970	0.214454	-0.680318
13278		-0.542333	1.311866	-0.722278	0.397734	0.057497	-0.239445	-0.741943	-0.225342	0.347900	-0.214112	-0.668162	0.208982	-0.681206
13279		2.073044	0.117821	-0.616232	0.768098	-0.146513	-0.269007	-0.732910	-0.228760	0.347168	-0.209598	-0.672111	0.200700	-0.681216
13280		0.539381	-0.417346	0.033913	0.536385	0.282327	0.239999	-0.739502	-0.204346	0.350830	-0.203743	-0.670482	0.197403	-0.685547
13281		-0.604283	-0.099623	0.648673	0.260406	0.462977	0.423388	-0.742676	-0.198486	0.330078	-0.199063	-0.666102	0.197593	-0.691114
13282		0.941758	-0.256839	1.798940	0.052782	0.416319	0.229771	-0.726807	-0.197021	0.335693	-0.197656	-0.662053	0.198021	-0.695273
13283		2.559007	0.150759	2.430043	-0.915570	0.773616	-0.011413	-0.734375	-0.206299	0.314941	-0.207213	-0.653024	0.203954	-0.699303
13284		3.134025	0.274648	4.110789	-1.586060	1.370027	0.144703	-0.740479	-0.212646	0.280518	-0.222300	-0.636347	0.215373	-0.706583
13285		16.501303	-4.328344	0.089141	-1.251587	2.003191	1.117099	-0.756104	-0.198486	0.241211	-0.227642	-0.611832	0.229611	-0.721886
13286		21.037395	-4.261311	-1.963727	0.876527	1.584027	1.830548	-0.770020	-0.158447	0.204590	-0.208834	-0.594464	0.231089	-0.741349
13287		24.817310	0.694382	9.294410	1.660742	1.198351	-0.607119	-0.765869	-0.161377	0.186768	-0.205502	-0.589229	0.208024	-0.753196
13288		37.221642	11.609624	5.934668	0.676431	1.945180	-0.478150	-0.782227	-0.163086	0.145752	-0.209992	-0.573686	0.193075	-0.767795
13289		11.931724	-2.439346	-2.244744	-2.540075	1.472286	0.195217	-0.795410	-0.170166	0.121094	-0.229711	-0.552030	0.214811	-0.772238
13290		1.531922	-6.834423	-3.674837	-1.036525	-0.317721	0.288556	-0.791016	-0.172607	0.120605	-0.233176	-0.551305	0.227697	-0.768014
13291		7.820197	-4.331931	-1.988110	0.344929	-1.288635	-0.133825	-0.782227	-0.170166	0.147949	-0.228370	-0.564994	0.227202	-0.759611
13292		16.621334	1.017873	0.627551	1.520572	-1.381678	-0.556616	-0.776367	-0.180420	0.180664	-0.218912	-0.583837	0.212772	-0.752290
13293		11.914761	4.336354	2.923036	0.837548	-1.184144	-0.535553	-0.764893	-0.184326	0.208496	-0.214642	-0.598591	0.204222	-0.744252
13294		6.136824	1.268653	2.389766	0.090890	-1.296316	-0.440400	-0.762207	-0.190430	0.235352	-0.214709	-0.611947	0.203547	-0.733478
13295		2.109648	-1.391477	1.853075	-0.274749	-1.468556	-0.220095	-0.753174	-0.202637	0.260010	-0.215046	-0.625137	0.208320	-0.720807
13296		3.772185	-2.908236	1.963993	0.130913	-1.627537	-0.032482	-0.749512	-0.202148	0.291748	-0.210021	-0.640121	0.211198	-0.708189
13297		9.980766	-2.508330	2.228554	0.647340	-1.487314	-0.126581	-0.720459	-0.203125	0.321777	-0.201988	-0.655194	0.208324	-0.697512
13298		11.807484	-0.474474	2.196104	0.974340	-0.880800	-0.226953	-0.715332	-0.202637	0.342041	-0.193652	-0.665855	0.200125	-0.692160
13299		9.670210	0.705825	1.749330	0.873224	-0.437491	-0.269070	-0.707520	-0.197998	0.355713	-0.187588	-0.672396	0.191307	-0.689997
13300		9.481211	1.087474	0.280243	0.456238	-0.390304	-0.166139	-0.701660	-0.200928	0.362549	-0.184231	-0.677232	0.186830	-0.687394
13301		9.772672	1.129932	-0.678279	0.008537	-0.542108	-0.002279	-0.700195	-0.201172	0.381348	-0.182889	-0.681926	0.187880	-0.682810
13302		10.131148	0.798232	-0.732482	-0.229297	-0.603939	0.011731	-0.695312	-0.193115	0.387451	-0.183294	-0.686544	0.191229	-0.677121
13303		10.736205	0.286767	-0.622388	-0.166572	-0.570660	-0.085434	-0.683350	-0.201660	0.395752	-0.184062	-0.691195	0.193213	-0.671595
13304		9.906631	-0.439143	-0.815802	-0.150101	-0.679332	-0.115991	-0.679443	-0.207031	0.408447	-0.184664	-0.696836	0.194972	-0.665060
13305		8.805964	-0.762411	-0.966687	-0.203430	-0.842405	-0.085742	-0.677002	-0.207031	0.415039	-0.185066	-0.703567	0.197794	-0.656979
13306		7.742000	-0.660406	-1.209727	-0.039404	-0.985086	-0.081511	-0.660400	-0.217529	0.437012	-0.183631	-0.711719	0.199651	-0.647977
13307		8.246804	-0.578132	-1.625420	0.115092	-1.170997	-0.018544	-0.635254	-0.214355	0.466797	-0.179804	-0.721470	0.201142	-0.637725
13308		10.480657	-0.057084	-1.878327	0.148707	-1.096200	0.122606	-0.645020	-0.212402	0.474854	-0.174677	-0.730224	0.203459	-0.628383
13309		11.314223	0.582031	-1.435614	0.269710	-0.804284	0.091346	-0.625244	-0.209717	0.489014	-0.169447	-0.736870	0.203880	-0.621887
13310		10.285442	0.389093	0.048428	0.188186	-0.760455	-0.010398	-0.608398	-0.211914	0.491699	-0.165847	-0.743201	0.203863	-0.615294
13311		10.738894	0.529311	0.044948	-0.194814	-0.483335	-0.010744	-0.606445	-0.218262	0.507812	-0.166520	-0.746555	0.206157	-0.610267
13312		11.645941	0.300939	-0.905708	-0.195810	0.034725	0.060589	-0.606445	-0.219727	0.498779	-0.167981	-0.745763	0.208041	-0.610196
13313		11.034512	-0.122518	-1.387750	0.167350	0.345163	0.042055	-0.613281	-0.221680	0.503662	-0.167014	-0.743387	0.206334	-0.613929
13314		9.215881	-0.475636	-1.157968	0.363128	0.112076	-0.049867	-0.612061	-0.210449	0.499756	-0.164317	-0.743439	0.202762	-0.615781
13315		8.704170	-0.208154	-2.030311	0.024316	-0.098465	-0.044340	-0.611572	-0.208252	0.504639	-0.164186	-0.744376	0.202330	-0.614825
13316		9.139612	0.101112	-3.164679	-0.203790	-0.028971	0.055690	-0.608398	-0.212891	0.504639	-0.165578	-0.744052	0.204465	-0.614137
13317		9.490159	0.179003	-2.594521	0.059364	0.065531	0.074987	-0.620117	-0.204834	0.503174	-0.164616	-0.743498	0.204564	-0.615033
13318		9.948201	0.115103	-1.074452	0.221911	0.016742	0.045115	-0.613037	-0.208496	0.500488	-0.162250	-0.743707	0.203259	-0.615841
13319		10.003247	-0.119713	-0.303488	0.060244	-0.037719	-0.010321	-0.614990	-0.201660	0.506592	-0.161683	-0.744153	0.202774	-0.615612
13320		9.859859	-0.212199	-1.008837	-0.083691	-0.076558	-0.028050	-0.610840	-0.205322	0.501953	-0.162478	-0.744649	0.203322	-0.614621
13321		9.801791	-0.122190	-2.090707	-0.046074	0.002055	0.014561	-0.612305	-0.201416	0.507324	-0.162804	-0.744505	0.203813	-0.614546
13322		9.527380	0.080351	-2.381041	0.042564	0.107305	0.044656	-0.609131	-0.208496	0.505615	-0.162328	-0.743659	0.203695	-0.615735
13323		9.485800	0.142067	-2.099718	0.083762	0.057914	0.018499	-0.603516	-0.196289	0.509033	-0.161557	-0.743348	0.203113	-0.616505
13324		9.340506	0.050603	-1.815136	0.025448	-0.047652	-0.006366	-0.610352	-0.200439	0.502686	-0.161226	-0.743803	0.202970	-0.616090
13325		9.430137	-0.103572	-1.840207	0.007708	-0.088854	-0.004549	-0.610352	-0.195557	0.506348	-0.160962	-0.744517	0.203058	-0.615267
13326		9.667040	-0.205115	-1.831055	0.025065	-0.037945	0.011645	-0.613037	-0.191895	0.516113	-0.160531	-0.744833	0.203061	-0.614995
13327		9.565614	-0.125435	-1.850908	-0.035083	0.016265	0.017768	-0.608154	-0.195557	0.502441	-0.160734	-0.744604	0.203472	-0.615084
13328		9.560516	-0.018563	-2.098079	-0.059430	-0.001646	0.015337	-0.612305	-0.201416	0.504395	-0.161162	-0.744458	0.204087	-0.614946
13329		9.630408	-0.068280	-2.370812	-0.039573	-0.009050	0.007207	-0.611328	-0.198242	0.501465	-0.161456	-0.744428	0.204490	-0.614771
13330		9.515539	-0.154140	-2.304804	0.033089	0.021899	-0.000325	-0.614502	-0.203369	0.511475	-0.161209	-0.744323	0.204201	-0.615058
13331		9.489269	-0.134473	-2.154095	0.080230	0.026839	-0.000891	-0.616211	-0.190430	0.500244	-0.160536	-0.744287	0.203540	-0.615497
13332		9.395399	-0.006546	-2.067216	0.039335	-0.002793	-0.007473	-0.611572	-0.197266	0.512695	-0.160212	-0.744397	0.203179	-0.615568
13333		9.449547	-0.047778	-2.142001	0.046904	-0.062849	-0.014309	-0.614746	-0.196777	0.505615	-0.159712	-0.745022	0.202826	-0.615057
13334		9.627222	-0.069021	-2.041908	0.053662	-0.050690	-0.006528	-0.611328	-0.193604	0.509033	-0.159135	-0.745532	0.202469	-0.614707
13335		9.729961	-0.029529	-1.703887	-0.019779	0.028418	0.007099	-0.608643	-0.191895	0.513672	-0.159327	-0.745259	0.202643	-0.614931
13336		9.693148	0.086814	-1.671873	-0.090016	0.046313	0.005579	-0.608154	-0.203857	0.511230	-0.160216	-0.744722	0.203302	-0.615132
13337		9.665374	0.020985	-1.944182	-0.055836	0.034446	0.001408	-0.615479	-0.196777	0.504639	-0.160818	-0.744353	0.203704	-0.615289
13338		9.489891	-0.130142	-2.187793	0.014308	0.010501	-0.003936	-0.610596	-0.197266	0.505127	-0.160740	-0.744307	0.203545	-0.615418
13339		9.376647	-0.329272	-2.276173	0.017764	-0.027632	0.001462	-0.616699	-0.191406	0.511230	-0.160490	-0.744554	0.203493	-0.615201
13340		9.539673	-0.290467	-2.092284	-0.038085	-0.018083	0.004527	-0.608154	-0.197021	0.507324	-0.160738	-0.744610	0.203862	-0.614947
13341		9.636813	-0.171557	-1.934362	-0.021942	0.011807	-0.002440	-0.609619	-0.203369	0.499268	-0.160985	-0.744488	0.204005	-0.614982
13342		9.637575	0.003281	-1.735609	0.039034	0.015544	-0.010019	-0.622070	-0.207764	0.505127	-0.160764	-0.744464	0.203620	-0.615197
13343		9.631591	0.045683	-1.546359	0.050958	0.023262	-0.011646	-0.610840	-0.195312	0.503662	-0.160471	-0.744403	0.203112	-0.615515
13344		9.546925	0.035305	-1.792308	-0.017380	-0.001712	-0.005746	-0.608398	-0.205566	0.501465	-0.160667	-0.744396	0.203209	-0.615440
13345		9.453712	-0.061193	-2.158656	-0.026141	-0.058733	-0.007789	-0.607666	-0.190674	0.502930	-0.160849	-0.744812	0.203502	-0.614793
13346		9.676960	-0.026341	-1.989508	0.011734	-0.061870	-0.005846	-0.614258	-0.200195	0.509766	-0.160603	-0.745329	0.203476	-0.614239
13347		9.807170	-0.004281	-1.578995	-0.019255	-0.002068	-0.002676	-0.614990	-0.198975	0.511475	-0.160799	-0.745313	0.203623	-0.614158
13348		9.628685	0.050234	-1.583154	-0.093738	-0.013961	-0.001616	-0.617188	-0.202148	0.495605	-0.161643	-0.745238	0.204368	-0.613780
13349		9.535595	0.060836	-1.852066	-0.086249	-0.057111	-0.003402	-0.608887	-0.202393	0.501953	-0.162356	-0.745483	0.205133	-0.613038
13350		9.562235	-0.029731	-2.151838	-0.030928	-0.052542	-0.006571	-0.601074	-0.195312	0.502441	-0.162572	-0.745833	0.205437	-0.612453
13351		9.662642	-0.127315	-2.192307	-0.018791	-0.021162	-0.001280	-0.601807	-0.200439	0.507080	-0.162683	-0.745966	0.205609	-0.612204
13352		9.624514	-0.130279	-1.942226	-0.048542	-0.006781	0.005116	-0.614014	-0.204102	0.506104	-0.163071	-0.745916	0.206060	-0.612011
13353		9.524385	0.004810	-1.873309	-0.060755	-0.001771	0.000433	-0.610596	-0.205811	0.508789	-0.163641	-0.745794	0.206552	-0.611840
13354		9.523379	0.056937	-2.166817	-0.020388	-0.026229	-0.003693	-0.608398	-0.202881	0.510010	-0.163798	-0.745963	0.206753	-0.611525
13355		9.509910	-0.040028	-2.348872	-0.033770	-0.034728	-0.002010	-0.602051	-0.202881	0.506348	-0.164030	-0.746170	0.207076	-0.611101
13356		9.537634	-0.090173	-2.056450	-0.021173	-0.008314	-0.002915	-0.607910	-0.200684	0.510986	-0.164224	-0.746204	0.207248	-0.610949
13357		9.532518	-0.089649	-1.999242	-0.000769	0.005628	0.003763	-0.609375	-0.209473	0.503418	-0.164195	-0.746158	0.207275	-0.611003
13358		9.571434	-0.092553	-2.224891	0.010993	-0.009095	0.004302	-0.616455	-0.205811	0.509277	-0.164069	-0.746226	0.207297	-0.610947
13359		9.548745	-0.094584	-2.217786	-0.012556	0.001837	-0.001557	-0.599854	-0.209961	0.509766	-0.164211	-0.746181	0.207392	-0.610931
13360		9.512202	-0.094439	-2.032288	-0.006499	0.039229	-0.008561	-0.602051	-0.208008	0.505371	-0.164455	-0.745902	0.207343	-0.611223
13361		9.364240	-0.098935	-2.113725	0.027560	0.014226	-0.003385	-0.604004	-0.207031	0.505859	-0.164277	-0.745862	0.207121	-0.611395
13362		9.441869	-0.039578	-2.276892	0.048797	-0.022780	-0.004063	-0.604492	-0.197754	0.509277	-0.163808	-0.746148	0.206801	-0.611280
13363		9.581678	0.102457	-2.234696	0.079886	-0.001662	-0.009419	-0.599854	-0.205322	0.509766	-0.163097	-0.746362	0.206097	-0.611447
13364		9.614236	0.123448	-2.005960	0.059744	0.008334	-0.009661	-0.617432	-0.200928	0.512939	-0.162640	-0.746458	0.205581	-0.611625
13365		9.530058	0.057215	-1.934379	0.033062	-0.001135	-0.008381	-0.608398	-0.204590	0.499756	-0.162380	-0.746553	0.205249	-0.611689
13366		9.558945	0.026940	-2.015567	0.018824	-0.008000	-0.005889	-0.604980	-0.200684	0.505615	-0.162261	-0.746649	0.205107	-0.611652
13367		9.563857	-0.055367	-2.055196	0.015652	0.014360	-0.004443	-0.609863	-0.204102	0.508545	-0.162186	-0.746582	0.204936	-0.611810
13368		9.577238	-0.065275	-2.101920	0.016101	0.014328	0.001957	-0.608887	-0.206543	0.505859	-0.162070	-0.746497	0.204835	-0.611979
13369		9.566243	-0.059459	-2.130465	0.022559	0.005246	0.003495	-0.606934	-0.204834	0.507324	-0.161877	-0.746485	0.204739	-0.612077
13370		9.546730	-0.029697	-2.081868	0.034517	0.016322	0.000893	-0.606689	-0.203125	0.505127	-0.161610	-0.746426	0.204500	-0.612300
13371		9.545177	0.058672	-2.005099	0.003337	0.025011	-0.000357	-0.604980	-0.202637	0.506592	-0.161663	-0.746238	0.204462	-0.612527
13372		9.548251	0.038710	-1.974470	-0.010610	0.020173	-0.000219	-0.605469	-0.199219	0.510010	-0.161826	-0.746065	0.204541	-0.612668
13373		9.576424	-0.042187	-2.018611	-0.001438	0.013209	0.001511	-0.607666	-0.200195	0.512939	-0.161846	-0.745971	0.204553	-0.612774
13374		9.549426	-0.137051	-2.126519	0.015384	0.012681	0.002347	-0.608887	-0.195312	0.507324	-0.161701	-0.745915	0.204447	-0.612916
13375		9.577858	-0.086585	-1.984355	0.024715	0.022287	0.003473	-0.609375	-0.204590	0.509521	-0.161472	-0.745793	0.204228	-0.613198
13376		9.640319	-0.053741	-1.856109	0.015022	0.035252	0.003588	-0.614258	-0.207031	0.503906	-0.161412	-0.745546	0.204128	-0.613546
13377		9.543947	-0.007284	-1.924615	-0.003043	0.026316	-0.000610	-0.606689	-0.204346	0.502197	-0.161557	-0.745323	0.204160	-0.613768
13378		9.513471	-0.020727	-2.074659	0.004650	-0.010335	-0.000114	-0.608887	-0.195557	0.507568	-0.161519	-0.745407	0.204205	-0.613662
13379		9.580871	-0.087931	-2.005349	0.001554	0.004251	0.002605	-0.610352	-0.205078	0.496094	-0.161466	-0.745382	0.204196	-0.613709
13380		9.623368	-0.120858	-1.864744	-0.013278	0.026791	0.001622	-0.610596	-0.197510	0.508301	-0.161696	-0.745121	0.204323	-0.613923
13381		9.604034	-0.102214	-1.816629	0.000094	0.018788	-0.000799	-0.604980	-0.203125	0.506592	-0.161727	-0.744989	0.204276	-0.614090
13382		9.561192	-0.052254	-1.903823	0.006696	-0.002326	-0.001684	-0.615479	-0.205322	0.503174	-0.161685	-0.745035	0.204271	-0.614048
13383		9.587469	-0.032550	-1.957792	0.005621	0.003455	-0.000743	-0.613525	-0.199219	0.507568	-0.161683	-0.745006	0.204269	-0.614084
13384		9.569682	-0.020313	-1.883253	-0.003900	0.025395	-0.004079	-0.617188	-0.203125	0.505127	-0.161806	-0.744817	0.204217	-0.614298
13385		9.542764	-0.003891	-1.881726	-0.004870	0.025069	-0.002294	-0.612793	-0.210693	0.497803	-0.161951	-0.744610	0.204215	-0.614511
13386		9.541275	0.006537	-1.980368	-0.006236	-0.001458	-0.000358	-0.609863	-0.203125	0.505859	-0.162086	-0.744583	0.204372	-0.614456
13387		9.544026	-0.054483	-2.084052	0.011283	-0.013797	-0.001023	-0.608398	-0.207275	0.508301	-0.161967	-0.744718	0.204351	-0.614330
13388		9.618628	-0.118580	-1.968977	0.013813	-0.005027	-0.001391	-0.616455	-0.193604	0.506836	-0.161874	-0.744793	0.204333	-0.614270
13389		9.600548	-0.098205	-1.784679	0.006130	0.009244	-0.000965	-0.605957	-0.200195	0.511475	-0.161800	-0.744744	0.204205	-0.614392
13390		9.603362	0.017261	-1.763291	-0.004637	-0.001937	0.003148	-0.610840	-0.194824	0.499756	-0.161799	-0.744766	0.204307	-0.614332
13391		9.617757	0.032348	-1.890226	-0.023113	-0.016015	0.003055	-0.612549	-0.203369	0.505615	-0.161924	-0.744833	0.204516	-0.614148
13392		9.597920	-0.044718	-1.952832	-0.021938	0.000346	0.000362	-0.619385	-0.204834	0.507568	-0.162144	-0.744782	0.204731	-0.614079
13393		9.565534	-0.125896	-1.966110	-0.008970	0.004858	0.002042	-0.610596	-0.204102	0.513916	-0.162247	-0.744712	0.204849	-0.614099
13394		9.571523	-0.104514	-1.907486	-0.003746	-0.002745	0.002128	-0.618652	-0.195801	0.503174	-0.162261	-0.744738	0.204955	-0.614028
13395		9.571550	-0.022314	-1.927080	-0.008593	-0.016037	0.000319	-0.606934	-0.200195	0.514404	-0.162268	-0.744837	0.205012	-0.613887
13396		9.596794	-0.042482	-1.994313	-0.002841	-0.013662	-0.001004	-0.610107	-0.201416	0.503662	-0.162240	-0.744969	0.205072	-0.613714
13397		9.605687	-0.084813	-1.966476	-0.009410	0.000207	0.001500	-0.608887	-0.199707	0.508545	-0.162323	-0.744943	0.205185	-0.613686
13398		9.569941	-0.088751	-1.948629	-0.023061	-0.003089	0.003924	-0.617432	-0.206055	0.511719	-0.162482	-0.744924	0.205415	-0.613590
13399		9.545150	-0.039334	-2.034356	-0.011772	-0.011367	-0.003210	-0.608887	-0.199463	0.509277	-0.162605	-0.744996	0.205547	-0.613426
13400		9.563483	-0.024711	-2.064614	0.009305	-0.005882	-0.003983	-0.617920	-0.201172	0.506348	-0.162510	-0.745087	0.205454	-0.613372
13401		9.565173	-0.075082	-1.973964	0.010020	-0.003882	0.000066	-0.610596	-0.205322	0.503662	-0.162404	-0.745129	0.205388	-0.613370
13402		9.583736	-0.091992	-1.936975	0.006539	-0.007950	0.000791	-0.608643	-0.196045	0.502686	-0.162349	-0.745193	0.205424	-0.613295
13403		9.587358	-0.047008	-1.978031	-0.004655	-0.002287	-0.001281	-0.602051	-0.203857	0.508789	-0.162368	-0.745209	0.205429	-0.613269
13404		9.589409	-0.025020	-1.979505	-0.016864	0.003935	0.003156	-0.613525	-0.201416	0.503418	-0.162518	-0.745156	0.205643	-0.613221
13405		9.583837	-0.036246	-1.961407	-0.010805	-0.001420	0.001793	-0.611816	-0.203857	0.510254	-0.162608	-0.745132	0.205762	-0.613187
13406		9.536416	-0.059239	-1.981515	-0.009390	-0.006547	-0.001563	-0.610352	-0.202393	0.501709	-0.162695	-0.745175	0.205872	-0.613075
13407		9.541113	-0.099355	-2.050456	-0.000119	-0.008189	-0.001773	-0.608154	-0.207031	0.508545	-0.162704	-0.745234	0.205905	-0.612991
13408		9.552562	-0.081363	-1.977966	0.006068	-0.003679	-0.001838	-0.608398	-0.204834	0.509521	-0.162682	-0.745284	0.205929	-0.612928
13409		9.532247	-0.049217	-1.932365	0.009129	0.000769	-0.004533	-0.600586	-0.200928	0.507080	-0.162647	-0.745317	0.205872	-0.612915
13410		9.545457	-0.019519	-1.936899	0.015674	-0.005504	-0.004219	-0.612061	-0.193604	0.502930	-0.162508	-0.745424	0.205759	-0.612860
13411		9.578758	0.005175	-1.982638	0.007394	-0.013294	-0.003479	-0.614014	-0.198486	0.503906	-0.162383	-0.745552	0.205633	-0.612780
13412		9.575976	-0.029396	-1.987463	-0.004860	-0.014127	-0.001572	-0.613037	-0.200684	0.509277	-0.162391	-0.745648	0.205668	-0.612650
13413		9.594161	-0.043436	-1.988180	-0.014445	-0.007273	-0.000609	-0.611328	-0.207031	0.507080	-0.162499	-0.745680	0.205791	-0.612540
13414		9.589961	-0.059177	-1.980395	-0.003589	-0.008905	-0.001992	-0.605957	-0.202148	0.498535	-0.162563	-0.745739	0.205893	-0.612417
13415		9.584040	-0.056400	-1.961445	-0.000682	-0.008406	-0.002684	-0.602051	-0.191895	0.500732	-0.162593	-0.745795	0.205934	-0.612327
13416		9.534385	-0.072347	-2.010829	-0.001371	-0.007543	-0.003012	-0.613525	-0.195312	0.503174	-0.162549	-0.745873	0.205866	-0.612267
13417		9.558386	-0.046651	-2.058218	0.009240	-0.003661	-0.004177	-0.603027	-0.201660	0.505859	-0.162449	-0.745925	0.205712	-0.612282
13418		9.560024	-0.038280	-2.064282	0.016848	-0.006442	-0.002464	-0.614746	-0.203369	0.510742	-0.162295	-0.746026	0.205610	-0.612234
13419		9.542765	-0.057096	-2.045838	0.017375	-0.008248	-0.005510	-0.613281	-0.199707	0.515625	-0.162159	-0.746137	0.205469	-0.612181
13420		9.536848	-0.054748	-2.026860	0.017860	-0.009165	-0.003832	-0.608154	-0.201660	0.512207	-0.161960	-0.746274	0.205297	-0.612125
13421		9.595295	-0.040253	-1.942929	0.015701	-0.011903	-0.002864	-0.603760	-0.202881	0.513184	-0.161792	-0.746420	0.205195	-0.612025
13422		9.595072	-0.013186	-1.938603	0.004870	-0.005248	-0.002899	-0.603516	-0.199463	0.515381	-0.161748	-0.746502	0.205185	-0.611941
13423		9.575689	-0.009800	-1.981546	-0.000118	-0.006513	-0.002239	-0.607666	-0.195068	0.504883	-0.161708	-0.746593	0.205178	-0.611842
13424		9.544803	-0.040753	-2.028491	-0.003710	-0.005313	-0.002110	-0.614990	-0.206299	0.506836	-0.161714	-0.746634	0.205164	-0.611796
13425		9.544086	-0.065668	-2.072532	0.001701	-0.004424	-0.000801	-0.618164	-0.196045	0.507568	-0.161742	-0.746651	0.205224	-0.611747
13426		9.540196	-0.068633	-2.060584	-0.004172	-0.004045	0.000644	-0.605225	-0.204102	0.513916	-0.161736	-0.746661	0.205220	-0.611738
13427		9.564892	-0.034344	-1.996189	-0.006743	-0.014001	-0.003178	-0.610107	-0.199219	0.507324	-0.161787	-0.746784	0.205320	-0.611542
13428		9.575596	-0.039356	-2.004145	-0.001569	-0.005925	-0.002129	-0.606689	-0.205811	0.510986	-0.161794	-0.746829	0.205325	-0.611483
13429		9.601587	-0.076169	-1.999022	-0.009411	-0.001475	0.001998	-0.602539	-0.198730	0.507324	-0.161888	-0.746822	0.205490	-0.611411
13430		9.567134	-0.055033	-2.056447	-0.012996	-0.007868	-0.000695	-0.608887	-0.203613	0.505615	-0.161976	-0.746871	0.205606	-0.611289
13431		9.542315	-0.036002	-2.075247	-0.003285	-0.004852	-0.000378	-0.614014	-0.201904	0.512695	-0.162027	-0.746890	0.205692	-0.611224
13432		9.552362	-0.012910	-1.994285	0.000054	-0.003053	0.000420	-0.603516	-0.206543	0.510010	-0.162006	-0.746914	0.205708	-0.611194
13433		9.558003	-0.044984	-1.949916	-0.008970	-0.006931	0.000431	-0.615234	-0.206299	0.505859	-0.162102	-0.746955	0.205881	-0.611060
13434		9.575932	-0.015838	-2.013667	-0.013838	-0.010952	0.000985	-0.603271	-0.204102	0.514648	-0.162249	-0.746979	0.206089	-0.610922
13435		9.578840	-0.052657	-2.038367	-0.007519	-0.006680	0.000083	-0.604736	-0.195801	0.508789	-0.162296	-0.747039	0.206207	-0.610795
13436		9.557845	-0.072878	-2.042554	-0.005878	-0.000460	0.001687	-0.601807	-0.206055	0.507080	-0.162285	-0.747045	0.206223	-0.610786
13437		9.525891	-0.073718	-2.037319	-0.000301	-0.001539	-0.002316	-0.614014	-0.204834	0.507568	-0.162340	-0.747063	0.206295	-0.610725
13438		9.542577	-0.041050	-2.055402	0.004723	-0.007517	-0.001378	-0.609131	-0.207764	0.509277	-0.162320	-0.747113	0.206310	-0.610664
13439		9.529162	-0.043360	-2.046560	0.008326	-0.006203	-0.002223	-0.612061	-0.205566	0.505127	-0.162293	-0.747173	0.206329	-0.610591
13440		9.545485	-0.037647	-2.071777	0.001318	-0.008774	-0.001883	-0.604248	-0.193848	0.507080	-0.162321	-0.747221	0.206387	-0.610505
13441		9.537445	-0.028375	-2.081403	0.002071	-0.010175	-0.001848	-0.605225	-0.197754	0.509033	-0.162224	-0.747325	0.206303	-0.610432
13442		9.568781	-0.027088	-2.089492	0.010711	-0.011486	-0.002704	-0.612061	-0.196533	0.507324	-0.162079	-0.747454	0.206195	-0.610349
13443		9.566433	-0.090816	-2.063067	0.012412	-0.006643	-0.001158	-0.600586	-0.197754	0.515137	-0.161922	-0.747527	0.206055	-0.610349
13444		9.577590	-0.098393	-2.034142	0.010648	-0.010108	-0.002649	-0.601562	-0.200684	0.514404	-0.161757	-0.747673	0.205941	-0.610252
13445		9.571757	-0.067872	-2.044323	0.011484	0.000568	-0.001504	-0.597168	-0.200684	0.514648	-0.161633	-0.747725	0.205848	-0.610253
13446		9.562675	-0.027276	-2.037028	0.014190	0.001013	-0.000855	-0.603271	-0.193115	0.510498	-0.161478	-0.747788	0.205748	-0.610251
13447		9.536354	-0.046207	-2.019786	0.021482	-0.005814	-0.000759	-0.604980	-0.192139	0.515137	-0.161196	-0.747901	0.205518	-0.610264
13448		9.573774	-0.036152	-2.008433	0.015232	-0.008951	-0.000614	-0.607178	-0.195801	0.512207	-0.160939	-0.748039	0.205316	-0.610231
13449		9.582556	-0.022243	-2.040826	0.004402	-0.003977	-0.000153	-0.604980	-0.201904	0.510498	-0.160843	-0.748092	0.205248	-0.610214
13450		9.539224	-0.031152	-2.033577	0.004971	-0.002083	0.000281	-0.610352	-0.200195	0.508057	-0.160801	-0.748120	0.205262	-0.610186
13451		9.551866	-0.042510	-2.048661	0.004574	-0.009785	0.000163	-0.613525	-0.198975	0.513428	-0.160751	-0.748186	0.205277	-0.610113
13452		9.540031	-0.063983	-2.051480	0.009363	-0.007735	0.000603	-0.604004	-0.194580	0.511475	-0.160622	-0.748260	0.205214	-0.610078
13453		9.579332	-0.072154	-2.050368	0.015899	0.001616	-0.003093	-0.604492	-0.190674	0.512451	-0.160450	-0.748306	0.205017	-0.610133
13454		9.547846	-0.088504	-2.011121	0.015565	0.000968	-0.000684	-0.599365	-0.198242	0.510986	-0.160225	-0.748358	0.204795	-0.610203
13455		9.558694	-0.026066	-2.039317	-0.005283	-0.016747	0.001885	-0.613281	-0.203125	0.517090	-0.160199	-0.748490	0.204902	-0.610012
13456		9.566276	-0.037126	-2.116899	-0.014479	-0.015657	0.001838	-0.603516	-0.190186	0.511963	-0.160283	-0.748578	0.205089	-0.609819
13457		9.572403	-0.043199	-2.031294	-0.015140	-0.008097	-0.000395	-0.606934	-0.188477	0.514893	-0.160323	-0.748634	0.205124	-0.609727
13458		9.583444	-0.076638	-2.008636	-0.010854	-0.007644	-0.000921	-0.600342	-0.196533	0.512695	-0.160298	-0.748704	0.205079	-0.609664
13459		9.577085	-0.099281	-2.031973	0.006237	-0.005293	-0.002733	-0.596191	-0.208008	0.510498	-0.160205	-0.748788	0.204997	-0.609613
13460		9.555472	-0.075865	-2.099379	0.004741	-0.000816	-0.003280	-0.601807	-0.196533	0.520020	-0.160245	-0.748820	0.205066	-0.609539
13461		9.544448	-0.042727	-2.087698	0.008958	-0.001497	-0.003039	-0.603516	-0.200928	0.512939	-0.160091	-0.748908	0.204906	-0.609525
13462		9.510786	-0.038590	-2.074164	0.018032	0.000170	-0.002891	-0.606934	-0.195068	0.517334	-0.159945	-0.748960	0.204773	-0.609545
13463		9.554061	-0.016618	-2.079002	0.015261	0.000264	-0.003246	-0.603027	-0.195068	0.506836	-0.159756	-0.749024	0.204560	-0.609587
13464		9.540155	-0.058064	-2.114858	0.012276	-0.003882	-0.001058	-0.614502	-0.193604	0.513428	-0.159643	-0.749070	0.204478	-0.609587
13465		9.515380	-0.081687	-2.106698	0.010562	-0.010402	-0.002116	-0.608398	-0.202881	0.513428	-0.159494	-0.749167	0.204344	-0.609552
13466		9.514576	-0.053421	-2.139185	0.016300	-0.008860	-0.003235	-0.611816	-0.193604	0.508301	-0.159373	-0.749268	0.204269	-0.609485
13467		9.569573	-0.026935	-2.076061	0.013190	-0.011924	-0.000462	-0.598145	-0.188477	0.518799	-0.159224	-0.749359	0.204178	-0.609443
13468		9.588103	-0.056992	-2.043912	0.010479	-0.013208	-0.000868	-0.601807	-0.192871	0.515625	-0.158957	-0.749545	0.203975	-0.609351
13469		9.560992	-0.074098	-2.064574	0.003571	-0.004544	0.000817	-0.609131	-0.202148	0.514404	-0.158835	-0.749614	0.203903	-0.609322
13470		9.541230	-0.015962	-2.131064	-0.010207	-0.004622	-0.001240	-0.602295	-0.197754	0.503662	-0.158958	-0.749623	0.204038	-0.609234
13471		9.548108	-0.009305	-2.158301	-0.011858	-0.005761	0.000703	-0.604248	-0.188477	0.518311	-0.159119	-0.749604	0.204243	-0.609147
13472		9.550274	-0.070765	-2.107004	-0.004731	-0.003429	-0.000482	-0.609131	-0.187988	0.520020	-0.159032	-0.749664	0.204141	-0.609130
13473		9.517911	-0.111881	-2.111594	-0.003347	-0.003476	-0.000306	-0.600098	-0.197998	0.518066	-0.158922	-0.749722	0.204011	-0.609130
13474		9.539710	-0.081727	-2.151259	-0.007022	-0.007597	0.001798	-0.599854	-0.200928	0.522217	-0.158899	-0.749801	0.204071	-0.609019
13475		9.553209	-0.053974	-2.120224	-0.005052	-0.002401	0.001450	-0.608398	-0.192871	0.514648	-0.158857	-0.749863	0.204096	-0.608946
13476		9.567340	-0.041114	-2.055048	0.002202	-0.001150	-0.000318	-0.604980	-0.192383	0.515137	-0.158791	-0.749880	0.204031	-0.608964
13477		9.563229	-0.042792	-2.078470	0.001263	0.001871	0.000519	-0.609375	-0.191895	0.513672	-0.158720	-0.749882	0.203963	-0.609002
13478		9.560945	-0.049446	-2.109544	-0.004900	0.002377	-0.000803	-0.604004	-0.193359	0.519287	-0.158740	-0.749852	0.203943	-0.609041
13479		9.553251	-0.080546	-2.125392	-0.008045	0.005712	0.000590	-0.601074	-0.194824	0.512451	-0.158728	-0.749832	0.203906	-0.609081
13480		9.533337	-0.088574	-2.087778	0.005251	0.003292	-0.003038	-0.604980	-0.199707	0.514648	-0.158684	-0.749836	0.203824	-0.609115
13481		9.514831	-0.060083	-2.085693	0.008016	0.002362	-0.002447	-0.610840	-0.190918	0.516602	-0.158632	-0.749847	0.203762	-0.609136
13482		9.510430	-0.032988	-2.139155	-0.003332	-0.000128	-0.001262	-0.598877	-0.205322	0.517334	-0.158598	-0.749854	0.203689	-0.609161
13483		9.551512	-0.032224	-2.143365	-0.001031	-0.008217	-0.000490	-0.598633	-0.199951	0.521484	-0.158587	-0.749950	0.203762	-0.609021
13484		9.572877	-0.054787	-2.077754	0.002463	-0.000800	-0.002198	-0.599121	-0.197998	0.516357	-0.158491	-0.750029	0.203672	-0.608978
13485		9.553881	-0.079942	-2.088612	-0.003447	0.003464	-0.001396	-0.605713	-0.194580	0.511719	-0.158497	-0.750034	0.203663	-0.608974
13486		9.572372	-0.065830	-2.116760	-0.002578	-0.000691	-0.001464	-0.597656	-0.205322	0.517822	-0.158528	-0.750028	0.203679	-0.608968
13487		9.522556	-0.039697	-2.072420	0.006586	0.007135	-0.003526	-0.600586	-0.193359	0.509766	-0.158497	-0.750037	0.203623	-0.608984
13488		9.516868	-0.062464	-2.092480	0.009483	0.006799	-0.003994	-0.603516	-0.195801	0.513672	-0.158452	-0.750010	0.203513	-0.609065
13489		9.512809	-0.076827	-2.118458	-0.002319	-0.001179	-0.003106	-0.604736	-0.196289	0.500977	-0.158471	-0.750031	0.203498	-0.609039
13490		9.548363	-0.045036	-2.131237	-0.006737	-0.002227	-0.001516	-0.604248	-0.196289	0.519043	-0.158665	-0.749968	0.203692	-0.609002
13491		9.598381	-0.042377	-2.051208	-0.001256	-0.000197	-0.000997	-0.605225	-0.197021	0.508789	-0.158606	-0.750007	0.203629	-0.608990
13492		9.560326	-0.079687	-2.070628	-0.005350	-0.001436	-0.001579	-0.604248	-0.199707	0.516113	-0.158706	-0.749985	0.203722	-0.608960
13493		9.548840	-0.057932	-2.097781	-0.005946	0.006417	-0.004345	-0.603271	-0.201904	0.520996	-0.158791	-0.749953	0.203721	-0.608978
13494		9.519205	-0.049530	-2.095253	0.001874	0.008728	-0.005441	-0.604736	-0.196777	0.514648	-0.158776	-0.749950	0.203611	-0.609021
13495		9.510029	-0.061307	-2.099306	0.004755	0.004208	-0.004714	-0.600342	-0.191895	0.515137	-0.158748	-0.749952	0.203509	-0.609061
13496		9.547846	-0.049616	-2.086373	0.006432	-0.004398	-0.004321	-0.603516	-0.198730	0.516846	-0.158624	-0.750043	0.203350	-0.609034
13497		9.568435	-0.041992	-2.086907	0.000390	0.000107	-0.002701	-0.595947	-0.196289	0.520020	-0.158599	-0.750077	0.203303	-0.609015
13498		9.570304	-0.033045	-2.091674	-0.017001	0.001278	0.000342	-0.600342	-0.196289	0.510498	-0.158643	-0.750104	0.203341	-0.608957
13499		9.566666	-0.061938	-2.084485	-0.016802	0.003007	-0.001486	-0.606689	-0.199951	0.516113	-0.158824	-0.750051	0.203478	-0.608929
13500		9.568665	-0.065759	-2.091447	-0.004369	0.006425	-0.005518	-0.600586	-0.197510	0.516846	-0.158900	-0.750020	0.203446	-0.608958
13501		9.527568	-0.091832	-2.092910	0.009116	0.007476	-0.006486	-0.599121	-0.197266	0.511963	-0.158815	-0.750038	0.203254	-0.609023
13502		9.519304	-0.092399	-2.174510	0.003255	0.008685	-0.005261	-0.595947	-0.198975	0.524658	-0.158832	-0.750005	0.203176	-0.609085
13503		9.546132	-0.046690	-2.183684	0.009797	0.011699	-0.002629	-0.608643	-0.190674	0.513672	-0.158623	-0.750046	0.202911	-0.609177
13504		9.534643	0.003461	-2.120816	0.020712	0.015410	-0.006014	-0.610107	-0.197510	0.515381	-0.158457	-0.749986	0.202603	-0.609396
13505		9.522238	-0.012107	-2.110324	0.023722	0.010648	-0.006106	-0.610107	-0.200195	0.520020	-0.158280	-0.749971	0.202327	-0.609553
13506		9.538233	-0.044637	-2.060333	0.021558	0.004561	-0.004169	-0.597412	-0.199463	0.517822	-0.158051	-0.750022	0.202059	-0.609638
13507		9.555615	-0.040789	-2.045991	0.017083	0.006561	-0.003011	-0.600830	-0.195068	0.513184	-0.157850	-0.750073	0.201839	-0.609700
13508		9.542664	-0.028346	-2.066666	0.009785	0.011702	-0.002637	-0.608643	-0.197266	0.509766	-0.157771	-0.750030	0.201700	-0.609819
13509		9.552641	-0.015210	-2.058833	0.010919	0.007059	-0.004341	-0.600098	-0.197021	0.508545	-0.157763	-0.749981	0.201629	-0.609906
13510		9.545363	-0.019641	-2.067612	0.009079	0.007540	-0.001529	-0.601807	-0.206055	0.520020	-0.157742	-0.749937	0.201598	-0.609975
13511		9.539767	-0.056530	-2.090533	0.004668	0.008162	-0.000424	-0.602051	-0.205811	0.515869	-0.157671	-0.749943	0.201535	-0.610008
13512		9.564451	-0.059985	-2.104585	-0.000238	0.008858	-0.000759	-0.605713	-0.197998	0.508057	-0.157701	-0.749907	0.201558	-0.610036
13513		9.597711	-0.061731	-2.034678	0.000628	0.011465	0.002221	-0.604248	-0.195801	0.513672	-0.157765	-0.749788	0.201640	-0.610139
13514		9.556990	-0.062679	-2.028805	0.004414	0.011999	0.000258	-0.605957	-0.197998	0.518066	-0.157715	-0.749723	0.201566	-0.610256
13515		9.532686	-0.016352	-2.073769	0.005297	0.010355	-0.000523	-0.602295	-0.199219	0.513428	-0.157618	-0.749697	0.201441	-0.610354
13516		9.534695	0.006452	-2.109824	-0.006364	0.008881	0.002573	-0.604736	-0.200928	0.508301	-0.157662	-0.749633	0.201508	-0.610399
13517		9.565751	-0.043956	-2.044819	-0.001892	0.006881	0.001421	-0.603271	-0.198242	0.510742	-0.157751	-0.749555	0.201626	-0.610434
13518		9.578227	-0.052912	-1.974892	0.001254	0.013659	0.002121	-0.610840	-0.192139	0.517578	-0.157765	-0.749452	0.201648	-0.610548
13519		9.542737	-0.027905	-2.020053	0.006487	0.012770	0.000290	-0.605957	-0.195312	0.520020	-0.157627	-0.749400	0.201463	-0.610710
13520		9.544665	-0.045924	-2.065137	0.007036	0.008808	0.002400	-0.602539	-0.198242	0.512939	-0.157433	-0.749404	0.201289	-0.610812
13521		9.577063	-0.032325	-2.065464	0.001172	0.008342	0.004089	-0.604492	-0.195312	0.508057	-0.157384	-0.749359	0.201303	-0.610875
13522		9.546168	-0.022220	-2.017485	0.003955	0.015786	0.002289	-0.602783	-0.199463	0.509766	-0.157393	-0.749229	0.201313	-0.611028
13523		9.567565	-0.029140	-2.016888	0.000758	0.014572	0.000437	-0.608643	-0.192627	0.513672	-0.157440	-0.749125	0.201339	-0.611136
13524		9.545578	-0.058108	-2.012203	-0.005809	0.009943	0.003234	-0.606445	-0.195068	0.506836	-0.157428	-0.749049	0.201332	-0.611234
13525		9.530965	-0.040681	-2.024703	-0.001888	0.010231	0.000457	-0.609863	-0.194336	0.512939	-0.157502	-0.748947	0.201390	-0.611321
13526		9.547875	-0.062598	-2.053012	-0.005567	0.001083	0.003995	-0.606201	-0.187256	0.512207	-0.157478	-0.748931	0.201429	-0.611334
13527		9.574403	-0.073356	-2.039857	-0.005000	0.004654	0.003945	-0.608398	-0.189941	0.508301	-0.157409	-0.748902	0.201393	-0.611400
13528		9.537138	-0.044541	-2.042369	-0.000581	0.006542	0.002129	-0.609619	-0.196777	0.513428	-0.157395	-0.748835	0.201393	-0.611484
13529		9.531366	-0.039867	-2.093174	0.001259	0.003548	0.000041	-0.605957	-0.191162	0.509521	-0.157350	-0.748829	0.201351	-0.611517
13530		9.574724	-0.073168	-2.073518	0.005529	-0.001017	0.000966	-0.607910	-0.201660	0.515381	-0.157251	-0.748853	0.201295	-0.611532
13531		9.565472	-0.114962	-2.048518	0.008732	0.003546	0.001859	-0.604980	-0.193848	0.512939	-0.157125	-0.748874	0.201227	-0.611562
13532		9.564489	-0.057764	-1.990041	0.006046	0.008955	-0.000475	-0.608154	-0.198975	0.519531	-0.157028	-0.748851	0.201108	-0.611654
13533		9.560565	-0.058139	-2.048758	0.003595	0.002155	-0.001086	-0.608398	-0.197266	0.502441	-0.156889	-0.748911	0.200960	-0.611664
13534		9.534314	-0.048313	-2.060663	0.008237	0.002784	0.000659	-0.608887	-0.194092	0.508301	-0.156935	-0.748848	0.201058	-0.611697
13535		9.520993	-0.091465	-2.059767	0.010955	-0.005204	-0.001244	-0.604736	-0.196045	0.518066	-0.156841	-0.748900	0.201006	-0.611675
13536		9.566235	-0.076038	-2.036396	0.013670	0.001944	-0.002515	-0.605469	-0.195801	0.513672	-0.156616	-0.748986	0.200766	-0.611705
13537		9.570495	-0.075917	-1.976062	0.016429	0.000181	-0.001670	-0.603516	-0.198486	0.508301	-0.156418	-0.749056	0.200587	-0.611730
13538		9.590706	-0.081465	-2.016313	0.015361	-0.006664	-0.002095	-0.611328	-0.196533	0.506836	-0.156310	-0.749142	0.200538	-0.611669
13539		9.590827	-0.069606	-1.977687	0.009245	-0.001616	-0.000218	-0.610596	-0.195312	0.512939	-0.156290	-0.749135	0.200567	-0.611672
13540		9.622962	-0.041302	-1.976427	-0.002551	0.005997	-0.003400	-0.615723	-0.196533	0.519287	-0.156328	-0.749102	0.200532	-0.611715
13541		9.586052	-0.039033	-1.947660	-0.003424	0.013501	-0.004311	-0.603271	-0.197510	0.515137	-0.156328	-0.749040	0.200396	-0.611835
13542		9.533689	-0.113756	-1.955289	-0.003081	0.006979	-0.000122	-0.610352	-0.200684	0.507568	-0.156305	-0.749032	0.200359	-0.611863
13543		9.529532	-0.098729	-2.047785	-0.013061	0.001553	-0.002501	-0.612305	-0.196777	0.517578	-0.156529	-0.748973	0.200549	-0.611816
13544		9.557621	-0.071201	-2.070619	-0.009414	-0.001855	-0.002432	-0.608154	-0.201904	0.514404	-0.156540	-0.749015	0.200519	-0.611771
13545		9.565488	-0.066894	-2.023492	-0.001736	0.002383	-0.003165	-0.609131	-0.201904	0.515625	-0.156564	-0.749030	0.200504	-0.611751
13546		9.577238	-0.074206	-1.955879	-0.004110	-0.001612	-0.005025	-0.609619	-0.197510	0.506348	-0.156597	-0.749082	0.200477	-0.611688
13547		9.559987	-0.062021	-2.002616	-0.005557	-0.000190	-0.005158	-0.611816	-0.195312	0.501709	-0.156756	-0.749053	0.200571	-0.611652
13548		9.542762	-0.063114	-2.052103	-0.004730	0.001217	-0.006368	-0.611816	-0.189453	0.510986	-0.156975	-0.748980	0.200700	-0.611644
13549		9.542670	-0.088370	-2.058373	0.000368	-0.001938	-0.006648	-0.603271	-0.207031	0.515381	-0.156960	-0.749013	0.200583	-0.611645
13550		9.553765	-0.065457	-2.058771	-0.004148	-0.007000	-0.008012	-0.611084	-0.199219	0.508789	-0.157032	-0.749125	0.200587	-0.611487
13551		9.559415	-0.040373	-2.037926	-0.002035	-0.000004	-0.005233	-0.608398	-0.201660	0.517334	-0.157135	-0.749114	0.200625	-0.611462
13552		9.572749	-0.037897	-2.011930	-0.002661	-0.000523	-0.005614	-0.605225	-0.200684	0.512939	-0.157138	-0.749173	0.200553	-0.611413
13553		9.574320	-0.041860	-2.021156	-0.003992	-0.009391	-0.003680	-0.615234	-0.196289	0.508789	-0.157162	-0.749273	0.200579	-0.611276
13554		9.566469	-0.018154	-2.027061	-0.007440	-0.003422	-0.005818	-0.601807	-0.196533	0.512451	-0.157298	-0.749266	0.200635	-0.611231
13555		9.570080	-0.026933	-2.043261	-0.012869	0.002435	-0.004087	-0.602295	-0.204102	0.514893	-0.157409	-0.749267	0.200667	-0.611191
13556		9.579536	-0.053016	-2.046486	-0.008722	0.001468	-0.003301	-0.610107	-0.197021	0.515381	-0.157490	-0.749294	0.200705	-0.611125
13557		9.576325	-0.083196	-2.002058	-0.001240	0.008171	-0.003403	-0.602295	-0.197266	0.510986	-0.157477	-0.749267	0.200606	-0.611193
13558		9.533562	-0.077377	-1.989338	-0.000087	0.006875	-0.006061	-0.611328	-0.201660	0.517334	-0.157514	-0.749254	0.200534	-0.611223
13559		9.540904	-0.014656	-2.038682	-0.004672	-0.000997	-0.006177	-0.607178	-0.194580	0.503906	-0.157533	-0.749307	0.200459	-0.611178
13560		9.563384	-0.011596	-2.046699	-0.006025	0.000247	-0.002169	-0.604980	-0.197510	0.512695	-0.157671	-0.749259	0.200576	-0.611163
13561		9.567270	-0.035989	-2.029348	-0.008858	0.000037	-0.002003	-0.604492	-0.194824	0.513916	-0.157721	-0.749276	0.200597	-0.611123
13562		9.567026	-0.019817	-2.062823	-0.011920	-0.000588	-0.004918	-0.613525	-0.194580	0.514404	-0.157783	-0.749310	0.200569	-0.611074
13563		9.557580	-0.044595	-2.071552	-0.004311	0.000850	-0.004396	-0.606201	-0.199463	0.506836	-0.157782	-0.749322	0.200484	-0.611087
13564		9.580347	-0.083646	-2.052006	-0.000492	0.001749	-0.001920	-0.604736	-0.205078	0.513916	-0.157855	-0.749295	0.200548	-0.611080
13565		9.564090	-0.049492	-1.981839	-0.000555	0.005639	-0.002589	-0.601562	-0.192383	0.507568	-0.157875	-0.749293	0.200528	-0.611084
13566		9.560230	0.004530	-2.028296	0.006559	0.003802	-0.002549	-0.605225	-0.195557	0.505371	-0.157820	-0.749291	0.200446	-0.611128
13567		9.558343	-0.028844	-2.065033	0.007384	0.005211	-0.003757	-0.604248	-0.195557	0.515137	-0.157832	-0.749253	0.200410	-0.611183
13568		9.536045	-0.057156	-2.062284	0.000760	0.003624	-0.001398	-0.606445	-0.201416	0.501465	-0.157740	-0.749283	0.200291	-0.611209
13569		9.556706	-0.049762	-2.062213	0.003361	-0.004115	-0.002485	-0.606445	-0.198975	0.510010	-0.157856	-0.749271	0.200434	-0.611147
13570		9.581258	-0.000239	-2.029535	0.005372	0.001386	-0.003361	-0.605225	-0.198730	0.505127	-0.157833	-0.749286	0.200382	-0.611152
13571		9.594963	-0.027090	-1.972378	0.003527	0.005214	-0.001514	-0.609619	-0.197754	0.498779	-0.157887	-0.749233	0.200427	-0.611188
13572		9.574593	-0.047587	-1.974107	0.004645	0.007334	-0.000172	-0.609863	-0.203857	0.511230	-0.158010	-0.749106	0.200561	-0.611267
13573		9.557554	-0.021806	-2.052177	0.001519	0.008086	-0.003038	-0.602539	-0.200684	0.502197	-0.158066	-0.749056	0.200561	-0.611314
13574		9.548237	-0.019424	-2.089766	0.004349	0.004111	-0.002002	-0.614746	-0.198975	0.511719	-0.158154	-0.749005	0.200649	-0.611325
13575		9.537365	-0.041838	-2.053151	0.006290	0.002617	-0.000428	-0.607178	-0.204102	0.508545	-0.158090	-0.748995	0.200591	-0.611374
13576		9.560249	-0.027979	-2.020695	0.003525	0.003539	-0.001034	-0.615479	-0.201416	0.510498	-0.158132	-0.748969	0.200644	-0.611376
13577		9.565933	-0.016419	-2.037857	-0.005531	0.002682	-0.001452	-0.605469	-0.194092	0.510010	-0.158225	-0.748925	0.200711	-0.611385
13578		9.564127	-0.024025	-2.032751	-0.003192	-0.001220	-0.001857	-0.609131	-0.196045	0.513184	-0.158215	-0.748952	0.200684	-0.611363
13579		9.517008	-0.061019	-2.054954	0.001648	-0.000531	-0.001457	-0.611084	-0.198730	0.510498	-0.158142	-0.748989	0.200602	-0.611363
13580		9.516637	-0.059670	-2.092200	0.007378	-0.005672	-0.000634	-0.612793	-0.199219	0.508545	-0.158055	-0.749049	0.200563	-0.611326
13581		9.589832	-0.032399	-2.058956	0.005237	-0.005068	-0.000618	-0.606934	-0.198486	0.506592	-0.158024	-0.749080	0.200574	-0.611292
13582		9.588350	-0.016395	-1.975206	0.005039	0.001578	-0.001191	-0.603760	-0.204590	0.507812	-0.158026	-0.749066	0.200587	-0.611305
13583		9.569840	-0.029795	-1.946364	0.001582	0.002521	-0.001888	-0.610352	-0.201172	0.517578	-0.158104	-0.749049	0.200668	-0.611278
13584		9.590083	-0.033329	-2.022293	0.003788	-0.001973	-0.001232	-0.610352	-0.197021	0.504395	-0.158008	-0.749117	0.200584	-0.611248
13585		9.573284	-0.050862	-2.037586	0.008231	0.009497	-0.001259	-0.611816	-0.200928	0.506348	-0.158018	-0.749027	0.200568	-0.611361
13586		9.568284	-0.049017	-2.014107	0.004867	0.011101	0.001944	-0.607422	-0.194092	0.512207	-0.158051	-0.748914	0.200623	-0.611472
13587		9.552033	0.012722	-1.972742	-0.005303	0.009795	-0.000298	-0.610352	-0.203369	0.515625	-0.158056	-0.748857	0.200581	-0.611554
13588		9.567013	0.025024	-2.023524	-0.009878	-0.000594	0.000307	-0.608154	-0.198486	0.504150	-0.158121	-0.748871	0.200662	-0.611495
13589		9.567175	-0.055474	-2.041304	-0.008270	0.007316	0.001408	-0.601562	-0.204590	0.509521	-0.158265	-0.748765	0.200813	-0.611536
13590		9.539559	-0.108867	-2.022764	-0.002673	0.009955	0.000890	-0.604248	-0.198975	0.507812	-0.158353	-0.748698	0.200910	-0.611564
13591		9.560506	-0.073701	-2.050785	-0.000466	0.007973	0.000826	-0.611816	-0.194336	0.510010	-0.158384	-0.748641	0.200947	-0.611614
13592		9.547630	-0.034332	-2.065740	0.006422	0.007398	-0.002686	-0.609375	-0.201904	0.513428	-0.158313	-0.748610	0.200818	-0.611712
13593		9.540536	-0.040045	-2.038399	0.006488	0.004345	-0.002254	-0.605957	-0.198975	0.506104	-0.158261	-0.748620	0.200744	-0.611738
13594		9.561346	-0.046259	-2.040674	0.000067	0.001134	-0.000770	-0.616943	-0.206543	0.510498	-0.158301	-0.748606	0.200796	-0.611727
13595		9.559930	-0.029919	-1.955912	0.001516	0.003900	-0.001838	-0.611328	-0.201416	0.512695	-0.158375	-0.748563	0.200855	-0.611742
13596		9.597818	-0.031721	-1.944464	-0.000559	0.006475	-0.002835	-0.610352	-0.194824	0.503662	-0.158405	-0.748535	0.200830	-0.611777
13597		9.562178	-0.059484	-2.004093	-0.000425	0.004556	-0.003174	-0.610352	-0.211182	0.509521	-0.158463	-0.748481	0.200831	-0.611827
13598		9.579420	-0.053623	-2.025468	-0.001162	0.012181	-0.000470	-0.607422	-0.200928	0.516602	-0.158620	-0.748373	0.200973	-0.611872
13599		9.529308	-0.039864	-2.019181	0.002694	0.013018	-0.002949	-0.614258	-0.196289	0.514648	-0.158588	-0.748337	0.200859	-0.611962
13600		9.537115	-0.033214	-2.043322	0.009163	0.001927	-0.005302	-0.604980	-0.203613	0.505615	-0.158461	-0.748384	0.200655	-0.612004
13601		9.567411	-0.053239	-2.045814	0.009941	0.005917	-0.002271	-0.610596	-0.191406	0.516113	-0.158472	-0.748356	0.200659	-0.612035
13602		9.575449	-0.063487	-2.000037	0.002291	0.008728	0.000951	-0.607178	-0.204834	0.507812	-0.158317	-0.748346	0.200484	-0.612144
13603		9.579506	-0.046957	-2.008226	-0.000627	0.005341	-0.002067	-0.608154	-0.202148	0.507080	-0.158412	-0.748307	0.200558	-0.612142
13604		9.564883	-0.003202	-1.978576	0.004207	0.011057	-0.003105	-0.604736	-0.200684	0.507324	-0.158467	-0.748234	0.200550	-0.612220
13605		9.555936	-0.029057	-1.985270	0.005101	0.006064	-0.002917	-0.605713	-0.194580	0.511963	-0.158481	-0.748214	0.200528	-0.612248
13606		9.605187	-0.037038	-1.978701	0.002423	0.008484	0.000131	-0.604492	-0.202393	0.502686	-0.158397	-0.748196	0.200428	-0.612325
13607		9.568277	-0.049551	-1.952584	-0.003650	0.016329	0.000740	-0.603760	-0.201172	0.507080	-0.158553	-0.748043	0.200557	-0.612429
13608		9.559394	-0.007246	-1.979307	-0.002552	0.009712	0.000060	-0.606934	-0.198975	0.513672	-0.158627	-0.747976	0.200619	-0.612472
13609		9.563603	-0.016188	-2.029452	0.002688	0.010507	-0.002229	-0.616699	-0.199951	0.510254	-0.158585	-0.747952	0.200518	-0.612545
13610		9.554847	-0.083960	-2.008601	0.002554	0.009077	-0.000928	-0.607910	-0.205566	0.509521	-0.158576	-0.747891	0.200472	-0.612637
13611		9.581587	-0.051722	-2.020819	0.000124	0.010642	-0.003951	-0.606201	-0.197754	0.505127	-0.158672	-0.747832	0.200489	-0.612678
13612		9.587891	-0.026157	-2.032226	0.005576	0.017718	-0.004843	-0.613281	-0.202881	0.507324	-0.158710	-0.747723	0.200401	-0.612830
13613		9.545709	-0.059504	-2.062827	0.011704	0.020220	-0.008867	-0.609375	-0.201660	0.503906	-0.158753	-0.747607	0.200250	-0.613010
13614		9.567797	-0.091404	-2.065684	0.019080	0.030831	-0.009624	-0.609619	-0.197510	0.506348	-0.158779	-0.747420	0.200037	-0.613301
13615		9.540913	-0.063727	-1.987541	0.006511	0.025584	-0.008804	-0.609375	-0.202881	0.505127	-0.158837	-0.747267	0.199864	-0.613528
13616		9.570386	-0.062992	-2.010385	0.021840	0.023218	-0.007073	-0.602783	-0.207031	0.498047	-0.158792	-0.747148	0.199665	-0.613750
13617		9.556433	-0.031320	-2.017007	0.012520	0.022003	-0.005647	-0.614746	-0.200439	0.503662	-0.158925	-0.746989	0.199678	-0.613904
13618		9.604191	-0.022194	-1.922717	0.003339	0.020541	-0.005042	-0.615967	-0.205078	0.509521	-0.159017	-0.746835	0.199622	-0.614087
13619		9.586189	-0.035827	-1.853114	0.002024	0.020040	-0.005520	-0.617432	-0.199219	0.499756	-0.159117	-0.746706	0.199570	-0.614235
13620		9.572305	-0.056854	-1.909652	0.018874	0.015718	-0.003916	-0.616943	-0.202637	0.500977	-0.159056	-0.746596	0.199424	-0.614431
13621		9.591990	-0.043380	-1.933781	0.023695	0.018092	-0.003979	-0.611572	-0.198975	0.503906	-0.158981	-0.746481	0.199268	-0.614641
13622		9.592715	-0.031002	-1.889427	0.007881	0.021732	-0.002992	-0.617432	-0.195801	0.505615	-0.158996	-0.746339	0.199174	-0.614839
13623		9.576519	-0.022371	-1.858617	0.007614	0.015990	-0.004089	-0.619385	-0.201660	0.511719	-0.158958	-0.746246	0.199020	-0.615013
13624		9.575635	-0.014721	-1.920333	0.015078	0.011831	-0.001009	-0.608887	-0.196045	0.504395	-0.158826	-0.746209	0.198863	-0.615142
13625		9.565102	0.019872	-1.979470	0.014531	0.009093	-0.001195	-0.613770	-0.197510	0.503418	-0.158700	-0.746190	0.198724	-0.615243
13626		9.503470	-0.001497	-1.979045	0.014611	0.003152	-0.004456	-0.620117	-0.197266	0.504883	-0.158605	-0.746207	0.198586	-0.615292
13627		9.563296	-0.017504	-1.905685	0.020896	-0.000078	-0.003155	-0.610596	-0.209229	0.510010	-0.158419	-0.746250	0.198395	-0.615349
13628		9.611888	-0.055097	-1.833225	0.013996	0.001332	0.000076	-0.617920	-0.201416	0.503418	-0.158364	-0.746288	0.198403	-0.615314
13629		9.611747	-0.014768	-1.823785	0.001647	0.001979	-0.002175	-0.613525	-0.199707	0.497559	-0.158414	-0.746265	0.198435	-0.615319
13630		9.625118	-0.011733	-1.833244	-0.008361	0.004963	-0.002076	-0.621338	-0.204102	0.503418	-0.158593	-0.746183	0.198572	-0.615328
13631		9.607346	-0.061456	-1.922470	-0.001052	0.004865	-0.003818	-0.611816	-0.197021	0.506836	-0.158712	-0.746125	0.198628	-0.615350
13632		9.572533	-0.089829	-1.981814	0.006932	0.010149	-0.002493	-0.608643	-0.202881	0.504395	-0.158665	-0.746089	0.198528	-0.615437
13633		9.564961	-0.069279	-1.910957	-0.000724	0.010067	-0.003016	-0.617432	-0.193115	0.507812	-0.158774	-0.746026	0.198578	-0.615469
13634		9.589624	-0.059585	-1.884842	-0.003545	0.008175	-0.002382	-0.616943	-0.207031	0.505127	-0.158766	-0.745985	0.198497	-0.615548
13635		9.577355	-0.045659	-1.942062	0.006988	0.012957	-0.003752	-0.617188	-0.202148	0.509766	-0.158845	-0.745897	0.198501	-0.615633
13636		9.572323	-0.041901	-1.955201	0.011282	0.007570	-0.002534	-0.614502	-0.199951	0.505371	-0.158778	-0.745885	0.198402	-0.615696
13637		9.582079	-0.070170	-1.919618	0.004092	0.012445	-0.003076	-0.611572	-0.194580	0.510254	-0.158804	-0.745813	0.198353	-0.615792
13638		9.602697	-0.051144	-1.839903	0.001805	0.014967	-0.002747	-0.610352	-0.202881	0.507812	-0.158769	-0.745755	0.198227	-0.615912
13639		9.606727	0.005430	-1.799904	0.001777	0.021666	-0.004696	-0.615234	-0.203613	0.506348	-0.158865	-0.745629	0.198185	-0.616053
13640		9.600128	0.014944	-1.802792	0.003789	0.017965	-0.002901	-0.615723	-0.207764	0.501221	-0.158930	-0.745515	0.198157	-0.616184
13641		9.595477	-0.008067	-1.820867	0.004089	0.011609	-0.002831	-0.617188	-0.194580	0.506348	-0.159049	-0.745421	0.198220	-0.616247
13642		9.567880	-0.033019	-1.833176	0.009504	0.002950	-0.003232	-0.619385	-0.196289	0.500977	-0.158933	-0.745446	0.198065	-0.616296
13643		9.614408	-0.009530	-1.776122	0.011350	0.006195	-0.002568	-0.619141	-0.198486	0.504150	-0.158852	-0.745418	0.197946	-0.616389
13644		9.625696	0.052494	-1.764130	-0.005227	0.012894	-0.002171	-0.625000	-0.194580	0.501709	-0.158942	-0.745315	0.197953	-0.616489
13645		9.612936	0.064632	-1.747623	-0.024471	0.014102	-0.000987	-0.619873	-0.198242	0.506836	-0.159174	-0.745145	0.198072	-0.616595
13646		9.597641	-0.004057	-1.847979	-0.021285	-0.005435	0.002838	-0.623291	-0.195068	0.501221	-0.159302	-0.745154	0.198255	-0.616492
13647		9.590945	-0.101402	-1.918259	-0.002358	-0.011387	-0.003820	-0.616699	-0.207520	0.499512	-0.159290	-0.745235	0.198235	-0.616404
13648		9.584781	-0.084780	-1.895377	0.005300	0.002772	-0.003279	-0.617920	-0.202881	0.501709	-0.159379	-0.745208	0.198297	-0.616394
13649		9.584233	-0.031395	-1.845647	0.004384	0.006930	-0.003245	-0.612061	-0.199463	0.497314	-0.159425	-0.745161	0.198289	-0.616442
13650		9.580266	0.034778	-1.853917	0.001403	-0.004603	-0.003018	-0.615723	-0.199951	0.508301	-0.159465	-0.745195	0.198329	-0.616377
13651		9.573420	0.033989	-1.976983	-0.003564	-0.019134	-0.002638	-0.614746	-0.194580	0.493896	-0.159449	-0.745369	0.198371	-0.616157
13652		9.571257	-0.054348	-1.994425	-0.006679	-0.017184	-0.001346	-0.622803	-0.200195	0.491699	-0.159489	-0.745466	0.198471	-0.615998
13653		9.606018	-0.120005	-1.920640	-0.002726	-0.007001	-0.002869	-0.611572	-0.196045	0.508789	-0.159592	-0.745459	0.198569	-0.615947
13654		9.625285	-0.088766	-1.805467	0.010137	0.000127	-0.001875	-0.614014	-0.199951	0.507568	-0.159452	-0.745524	0.198434	-0.615948
13655		9.626806	-0.039993	-1.801652	0.012630	-0.002345	-0.003552	-0.614502	-0.199219	0.497070	-0.159342	-0.745600	0.198320	-0.615922
13656		9.570974	-0.007265	-1.884937	0.000410	0.000934	-0.002941	-0.613525	-0.197021	0.509277	-0.159404	-0.745579	0.198353	-0.615920
13657		9.575125	0.010710	-1.931069	-0.002766	0.001750	-0.000874	-0.609131	-0.203125	0.504883	-0.159389	-0.745598	0.198332	-0.615908
13658		9.563816	-0.010072	-1.932593	-0.001478	-0.008468	-0.001369	-0.608398	-0.205078	0.501221	-0.159432	-0.745681	0.198421	-0.615769
13659		9.569036	-0.053111	-1.929064	0.001732	-0.017198	-0.005675	-0.613037	-0.202881	0.493408	-0.159498	-0.745829	0.198507	-0.615544
13660		9.584925	-0.075950	-1.889224	-0.000204	-0.016173	-0.002596	-0.612549	-0.197510	0.510254	-0.159577	-0.745918	0.198643	-0.615372
13661		9.609711	-0.005172	-1.824502	-0.000521	-0.007305	-0.003395	-0.605469	-0.209473	0.505859	-0.159544	-0.746017	0.198607	-0.615271
13662		9.582992	0.018912	-1.836271	0.006030	-0.007672	-0.004697	-0.616455	-0.203125	0.507324	-0.159612	-0.746111	0.198685	-0.615114
13663		9.572347	-0.025092	-1.955372	0.005100	-0.015911	-0.005151	-0.608643	-0.192627	0.499268	-0.159588	-0.746262	0.198678	-0.614941
13664		9.602143	-0.043624	-1.998256	-0.004153	-0.012284	-0.001064	-0.610840	-0.197510	0.506104	-0.159568	-0.746356	0.198706	-0.614823
13665		9.591341	-0.005110	-1.883945	-0.008686	-0.001088	-0.002639	-0.609863	-0.195801	0.499756	-0.159646	-0.746371	0.198752	-0.614769
13666		9.587185	0.006519	-1.869096	-0.000315	-0.008093	-0.004501	-0.613770	-0.199707	0.505127	-0.159655	-0.746443	0.198742	-0.614683
13667		9.577780	-0.017707	-1.916759	0.001426	-0.012514	-0.005259	-0.604492	-0.197510	0.508057	-0.159652	-0.746559	0.198730	-0.614546
13668		9.566391	-0.036814	-1.956437	-0.008518	-0.008034	-0.001507	-0.610352	-0.204102	0.500000	-0.159699	-0.746644	0.198801	-0.614408
13669		9.556299	0.005150	-1.951909	-0.011145	-0.007369	-0.002951	-0.609619	-0.204346	0.501953	-0.159881	-0.746668	0.198978	-0.614274
13670		9.603079	-0.008951	-1.980486	0.006734	-0.011873	-0.003392	-0.613525	-0.207275	0.506104	-0.159881	-0.746771	0.199016	-0.614136
13671		9.563030	-0.029353	-1.955324	0.009351	-0.010863	-0.002436	-0.624268	-0.199951	0.503418	-0.159859	-0.746872	0.199047	-0.614009
13672		9.579133	-0.039508	-1.911608	-0.002766	-0.014832	-0.000142	-0.608398	-0.201172	0.505371	-0.159844	-0.746955	0.199102	-0.613895
13673		9.587600	0.028969	-1.933208	-0.011348	-0.008256	-0.001352	-0.617188	-0.204590	0.502441	-0.159962	-0.747007	0.199243	-0.613755
13674		9.575971	0.050000	-1.963102	-0.005908	-0.006187	-0.000790	-0.621582	-0.200439	0.506104	-0.160064	-0.747019	0.199372	-0.613672
13675		9.581689	-0.034992	-1.930818	-0.008794	-0.008378	0.000377	-0.617432	-0.197754	0.503906	-0.160113	-0.747051	0.199464	-0.613590
13676		9.602555	-0.108162	-1.950662	-0.010728	-0.008569	-0.000726	-0.611328	-0.195312	0.511963	-0.160174	-0.747089	0.199545	-0.613501
13677		9.594427	-0.058076	-1.950503	-0.016551	-0.002066	-0.001550	-0.611816	-0.205078	0.512451	-0.160261	-0.747111	0.199606	-0.613432
13678		9.578741	-0.013508	-1.924241	-0.025570	-0.007144	-0.000797	-0.613770	-0.202148	0.505615	-0.160509	-0.747137	0.199860	-0.613253
13679		9.594987	0.032653	-1.903150	-0.041593	-0.003582	0.001540	-0.610596	-0.201172	0.505371	-0.160890	-0.747073	0.200236	-0.613108
13680		9.596622	0.042562	-1.909106	-0.045050	-0.005160	0.001549	-0.608887	-0.205078	0.505371	-0.161289	-0.747023	0.200632	-0.612935
13681		9.580112	0.000859	-1.968765	-0.048391	-0.000750	0.003477	-0.612061	-0.198975	0.509521	-0.161751	-0.746925	0.201105	-0.612778
13682		9.576510	-0.027096	-1.962116	-0.060985	-0.000157	0.002587	-0.611084	-0.207764	0.506104	-0.162250	-0.746820	0.201564	-0.612623
13683		9.585935	-0.025551	-1.959343	-0.062946	0.001702	0.005431	-0.614258	-0.206787	0.494385	-0.162845	-0.746665	0.202166	-0.612455
13684		9.572676	0.003676	-2.016560	-0.053476	-0.007716	0.001642	-0.614258	-0.203857	0.508789	-0.163380	-0.746569	0.202696	-0.612256
13685		9.553235	0.046273	-1.976884	-0.069429	-0.001035	0.002216	-0.615479	-0.209229	0.500488	-0.163983	-0.746443	0.203245	-0.612065
13686		9.573790	0.055803	-1.976793	-0.055544	-0.001963	0.003819	-0.614014	-0.206543	0.494873	-0.164517	-0.746312	0.203782	-0.611904
13687		9.583904	-0.052381	-1.962827	-0.040357	0.004313	0.004000	-0.616455	-0.211914	0.501709	-0.164911	-0.746153	0.204175	-0.611861
13688		9.610254	-0.033688	-1.942645	-0.070772	0.005008	0.003965	-0.607910	-0.206299	0.502686	-0.165612	-0.745936	0.204826	-0.611718
13689		9.619941	-0.045046	-1.942309	-0.059586	0.003271	0.000465	-0.606934	-0.211182	0.498779	-0.166171	-0.745797	0.205302	-0.611576
13690		9.558886	-0.073182	-2.017796	-0.047052	0.014079	-0.006387	-0.607422	-0.203125	0.501221	-0.166751	-0.745600	0.205659	-0.611538
13691		9.562272	-0.126849	-2.071471	-0.002665	0.019113	-0.011583	-0.607178	-0.210449	0.500977	-0.166867	-0.745496	0.205504	-0.611685
13692		9.557796	-0.134607	-2.085767	0.022431	0.018141	-0.008975	-0.614502	-0.204834	0.495361	-0.166802	-0.745433	0.205270	-0.611859
13693		9.494815	-0.107462	-2.101374	0.036334	0.018203	-0.016698	-0.613525	-0.209961	0.500732	-0.166617	-0.745398	0.204793	-0.612112
13694		9.545781	-0.053557	-2.047550	0.088330	0.015153	-0.023125	-0.623047	-0.208252	0.500977	-0.166029	-0.745519	0.203913	-0.612417
13695		9.613715	-0.051722	-1.956911	0.113723	0.016863	-0.023917	-0.619629	-0.203857	0.502686	-0.165189	-0.745667	0.202795	-0.612835
13696		9.580371	-0.062377	-1.907111	0.120979	0.010592	-0.028428	-0.616943	-0.196533	0.499023	-0.164266	-0.745905	0.201557	-0.613202
13697		9.640148	-0.036894	-1.822652	0.126484	0.006224	-0.031434	-0.612549	-0.200684	0.497803	-0.163256	-0.746196	0.200204	-0.613561
13698		9.666074	0.020559	-1.754327	0.131039	0.022485	-0.025962	-0.612793	-0.201660	0.504883	-0.162273	-0.746347	0.198913	-0.614058
13699		9.603582	0.120857	-1.723597	0.106964	0.016548	-0.023782	-0.608643	-0.196045	0.501953	-0.161479	-0.746506	0.197841	-0.614420
13700		9.579327	0.196119	-1.800283	0.078296	0.005439	-0.021623	-0.618408	-0.200439	0.502686	-0.160878	-0.746691	0.196997	-0.614624
13701		9.592845	0.199555	-1.808825	0.057490	0.011815	-0.012159	-0.615723	-0.209961	0.510742	-0.160454	-0.746736	0.196426	-0.614863
13702		9.571630	0.173403	-1.877979	0.030976	0.008455	-0.012428	-0.611084	-0.198975	0.496094	-0.160347	-0.746768	0.196154	-0.614940
13703		9.538487	0.152737	-1.906605	0.014923	0.000117	-0.010310	-0.610840	-0.198242	0.502930	-0.160304	-0.746804	0.195980	-0.614962
13704		9.545595	0.084801	-1.978862	0.003170	-0.000807	-0.002067	-0.614990	-0.205322	0.508057	-0.160272	-0.746829	0.195943	-0.614952
13705		9.538181	0.079934	-1.989723	-0.015407	-0.001277	0.004681	-0.624512	-0.205811	0.496582	-0.160410	-0.746800	0.196168	-0.614880
13706		9.597549	0.120786	-1.978518	-0.025370	-0.005420	0.002296	-0.605957	-0.212891	0.497559	-0.160682	-0.746733	0.196480	-0.614790
13707		9.612337	0.102785	-1.926831	-0.014141	0.003419	0.003935	-0.610107	-0.204590	0.501221	-0.160952	-0.746640	0.196819	-0.614724
13708		9.604627	-0.034107	-1.884474	-0.019215	0.009728	0.007324	-0.611084	-0.199707	0.499756	-0.161149	-0.746501	0.197094	-0.614753
13709		9.583236	-0.048254	-1.950902	-0.032566	0.007186	0.008106	-0.616943	-0.200928	0.496582	-0.161405	-0.746358	0.197422	-0.614754
13710		9.583109	-0.008520	-1.939754	-0.004972	0.011466	0.005538	-0.616211	-0.206787	0.510986	-0.161444	-0.746224	0.197512	-0.614878
13711		9.560387	0.028597	-1.921015	0.005812	0.007128	0.005511	-0.613770	-0.203369	0.496826	-0.161397	-0.746179	0.197566	-0.614928
13712		9.576535	0.071254	-1.860688	-0.020365	0.005628	0.007001	-0.607422	-0.197021	0.507080	-0.161585	-0.746057	0.197837	-0.614939
13713		9.618118	0.056855	-1.827436	-0.007858	0.010105	0.006458	-0.614502	-0.199463	0.513672	-0.161584	-0.745982	0.197910	-0.615006
13714		9.593294	0.011820	-1.886976	0.001066	0.006242	0.009224	-0.618652	-0.212158	0.502930	-0.161467	-0.745952	0.197946	-0.615062
13715		9.573174	-0.010520	-1.888922	-0.016168	0.005827	0.007047	-0.611084	-0.200195	0.509277	-0.161684	-0.745832	0.198261	-0.615049
13716		9.598763	-0.041160	-1.945726	-0.002232	0.004404	0.008411	-0.617188	-0.203369	0.497803	-0.161625	-0.745802	0.198348	-0.615073
13717		9.558991	-0.051531	-1.876933	0.003252	0.008455	0.007966	-0.611572	-0.199219	0.504395	-0.161583	-0.745705	0.198428	-0.615176
13718		9.580604	0.042816	-1.862321	-0.005729	0.001682	0.009188	-0.611816	-0.200439	0.509521	-0.161548	-0.745674	0.198555	-0.615181
13719		9.587447	0.099848	-1.838804	-0.005622	0.005623	0.007151	-0.613770	-0.195801	0.507568	-0.161539	-0.745630	0.198659	-0.615204
13720		9.571467	0.025337	-1.829266	-0.006724	0.005543	0.009751	-0.610596	-0.208984	0.497559	-0.161474	-0.745578	0.198743	-0.615256
13721		9.606289	-0.034329	-1.853348	-0.023030	0.000524	0.012208	-0.609863	-0.198242	0.502441	-0.161694	-0.745479	0.199161	-0.615184
13722		9.598710	0.001057	-1.892066	-0.028583	-0.005032	0.008992	-0.618652	-0.202637	0.500977	-0.161856	-0.745454	0.199474	-0.615071
13723		9.591065	-0.019189	-1.869565	-0.016016	0.002240	0.007201	-0.613281	-0.207520	0.502197	-0.161965	-0.745377	0.199689	-0.615065
13724		9.580508	-0.040485	-1.906161	-0.022236	0.003613	0.010514	-0.613037	-0.208252	0.499268	-0.162162	-0.745272	0.200041	-0.615026
13725		9.586806	-0.042770	-1.963415	-0.027308	-0.002006	0.008740	-0.613281	-0.197754	0.494385	-0.162419	-0.745196	0.200441	-0.614920
13726		9.582751	-0.046806	-1.951365	-0.007212	-0.005118	0.007324	-0.612793	-0.202881	0.500732	-0.162392	-0.745196	0.200565	-0.614886
13727		9.601108	-0.078351	-1.878604	0.003877	0.008591	0.003936	-0.605957	-0.195312	0.499512	-0.162363	-0.745129	0.200595	-0.614966
13728		9.585715	-0.036123	-1.849640	0.004245	0.005044	0.002740	-0.613770	-0.206787	0.500732	-0.162268	-0.745115	0.200550	-0.615022
13729		9.582095	-0.012212	-1.866311	0.014061	0.002031	0.004010	-0.620850	-0.200684	0.494873	-0.162167	-0.745110	0.200559	-0.615052
13730		9.606706	-0.003747	-1.878141	0.019709	0.003316	0.003485	-0.619385	-0.203613	0.511475	-0.161963	-0.745093	0.200447	-0.615163
13731		9.569597	-0.017037	-1.890765	0.020167	0.006600	0.003958	-0.612793	-0.193115	0.503418	-0.161761	-0.745090	0.200341	-0.615254
13732		9.584567	-0.022683	-1.871882	0.004907	-0.001970	0.005310	-0.610840	-0.196289	0.501221	-0.161594	-0.745127	0.200297	-0.615268
13733		9.607857	-0.002301	-1.809641	-0.001323	-0.009179	0.002481	-0.612061	-0.200439	0.500977	-0.161529	-0.745204	0.200334	-0.615179
13734		9.624938	-0.039059	-1.805747	0.000722	0.005679	0.002537	-0.612061	-0.204102	0.494629	-0.161522	-0.745160	0.200370	-0.615223
13735		9.603580	-0.094778	-1.845194	0.005950	0.007701	0.004465	-0.616943	-0.204102	0.490723	-0.161508	-0.745083	0.200432	-0.615300
13736		9.552052	-0.073713	-1.943542	-0.000545	-0.001066	-0.000672	-0.610840	-0.194824	0.504639	-0.161575	-0.745056	0.200512	-0.615289
13737		9.565341	-0.043375	-1.984678	0.020914	-0.002548	-0.002372	-0.618164	-0.201172	0.495117	-0.161336	-0.745151	0.200299	-0.615306
13738		9.574009	-0.032150	-1.943213	0.022160	-0.004012	-0.000873	-0.618652	-0.199707	0.502686	-0.161148	-0.745207	0.200170	-0.615329
13739		9.591965	-0.049243	-1.868424	0.013800	-0.001577	-0.002241	-0.611816	-0.199463	0.503174	-0.161026	-0.745251	0.200060	-0.615343
13740		9.612326	-0.056901	-1.834439	0.014054	0.001658	-0.000423	-0.619141	-0.195557	0.507324	-0.160902	-0.745279	0.199969	-0.615372
13741		9.597074	-0.012834	-1.843573	0.014477	0.000080	-0.002632	-0.609375	-0.200684	0.501953	-0.160733	-0.745331	0.199797	-0.615409
13742		9.570621	0.038458	-1.885084	0.002046	-0.007429	-0.001653	-0.618896	-0.200439	0.499268	-0.160728	-0.745404	0.199827	-0.615311
13743		9.580156	0.039076	-1.920067	0.000772	-0.002235	0.000299	-0.613525	-0.206055	0.495361	-0.160726	-0.745409	0.199862	-0.615295
13744		9.563699	-0.033962	-1.912063	-0.008344	0.000300	0.003795	-0.619385	-0.200195	0.502441	-0.160858	-0.745354	0.200071	-0.615259
13745		9.633385	-0.020438	-1.939872	-0.013155	-0.002086	0.003847	-0.613281	-0.193359	0.494141	-0.160947	-0.745329	0.200234	-0.615213
13746		9.627479	-0.046747	-1.887982	-0.004657	0.005958	0.005367	-0.613281	-0.208496	0.498047	-0.160922	-0.745257	0.200282	-0.615292
13747		9.567121	-0.021660	-1.846517	0.006058	0.012484	0.002176	-0.625977	-0.198486	0.507812	-0.160980	-0.745145	0.200360	-0.615386
13748		9.547712	0.000683	-1.949134	-0.005236	-0.000807	0.002260	-0.609131	-0.200928	0.500977	-0.160976	-0.745138	0.200408	-0.615380
13749		9.581117	0.037256	-1.953850	-0.020505	-0.006861	0.002888	-0.611572	-0.199219	0.503906	-0.161152	-0.745149	0.200657	-0.615240
13750		9.574291	-0.004151	-1.833136	-0.009866	0.000584	0.004417	-0.614014	-0.200684	0.509521	-0.161208	-0.745126	0.200794	-0.615208
13751		9.627148	-0.065086	-1.816184	-0.011786	-0.001743	0.008468	-0.607910	-0.211182	0.498779	-0.161246	-0.745115	0.200991	-0.615147
13752		9.617923	-0.050760	-1.852989	-0.023778	-0.002988	0.004507	-0.615723	-0.191895	0.498535	-0.161549	-0.745063	0.201380	-0.615003
13753		9.613005	-0.046423	-1.904240	-0.015377	0.010619	0.004863	-0.617920	-0.195801	0.499756	-0.161607	-0.744947	0.201461	-0.615102
13754		9.563387	-0.059746	-1.941419	-0.002706	0.013982	0.003763	-0.617676	-0.197998	0.505859	-0.161598	-0.744827	0.201464	-0.615249
13755		9.251371	-0.083910	-2.100254	0.006526	-0.018460	-0.004227	-0.619141	-0.203613	0.506348	-0.161494	-0.745006	0.201403	-0.615079
13756		9.490448	-0.110111	-2.430317	0.036937	-0.095041	-0.002968	-0.617920	-0.205078	0.502441	-0.160954	-0.745820	0.201329	-0.614258
13757		9.627051	-0.035407	-1.956890	0.018150	-0.015800	0.006072	-0.614014	-0.198486	0.500000	-0.160747	-0.745947	0.201353	-0.614150
13758		9.601786	0.066586	-1.857811	-0.006534	-0.030750	0.006703	-0.609375	-0.194824	0.498047	-0.160678	-0.746148	0.201548	-0.613859
13759		9.921033	0.070376	-2.102817	-0.005484	-0.050518	0.010763	-0.612793	-0.197754	0.503418	-0.160494	-0.746500	0.201786	-0.613402
13760		9.965937	-0.137168	-1.983914	0.002067	0.023437	0.020247	-0.613525	-0.201904	0.508789	-0.160369	-0.746275	0.201924	-0.613663
13761		9.463820	-0.160153	-1.807010	0.014497	0.091488	0.008937	-0.611084	-0.197998	0.506104	-0.160418	-0.745586	0.201760	-0.614541
13762		9.253130	-0.019263	-2.193660	0.032442	0.020563	0.006488	-0.612549	-0.197998	0.506104	-0.160112	-0.745491	0.201550	-0.614804
13763		9.256341	0.022371	-2.473933	0.077286	0.005038	0.026026	-0.611572	-0.195068	0.500000	-0.159203	-0.745554	0.201212	-0.615075
13764		9.382909	0.066141	-2.410006	0.119254	-0.016472	0.038331	-0.621094	-0.197021	0.506104	-0.157752	-0.745823	0.200705	-0.615289
13765		9.655444	0.047320	-2.165845	0.110202	-0.035290	0.038583	-0.618164	-0.187988	0.510010	-0.156353	-0.746208	0.200324	-0.615303
13766		9.820054	-0.026116	-1.728761	0.066609	-0.000205	0.050212	-0.614258	-0.193848	0.505615	-0.155294	-0.746230	0.200250	-0.615569
13767		9.749863	0.093183	-1.592023	0.040761	0.035667	0.051644	-0.620850	-0.192627	0.515625	-0.154634	-0.745904	0.200403	-0.616080
13768		9.639371	0.028295	-1.879228	0.056501	0.023692	0.044095	-0.611328	-0.192139	0.499512	-0.153833	-0.745733	0.200365	-0.616499
13769		9.590303	-0.017346	-2.093028	0.035611	0.030495	0.054322	-0.612549	-0.194580	0.500732	-0.153209	-0.745421	0.200613	-0.616952
13770		9.565464	-0.023965	-2.023163	0.033881	0.052770	0.058375	-0.614014	-0.193604	0.504639	-0.152655	-0.744918	0.200902	-0.617601
13771		9.577934	-0.096402	-1.776666	0.035305	0.049139	0.067850	-0.612549	-0.184326	0.502441	-0.152002	-0.744431	0.201273	-0.618229
13772		9.743270	-0.013690	-1.708858	0.026851	0.050077	0.071911	-0.621826	-0.187012	0.505615	-0.151333	-0.743922	0.201674	-0.618875
13773		9.814325	0.065880	-1.656757	0.021061	0.101211	0.075393	-0.623535	-0.188232	0.501221	-0.150843	-0.742985	0.202079	-0.619987
13774		9.735032	0.099811	-1.749030	0.000692	0.111719	0.076338	-0.619385	-0.182861	0.504395	-0.150588	-0.741914	0.202655	-0.621142
13775		9.693645	0.120139	-1.833482	-0.041781	0.099112	0.068893	-0.628418	-0.175781	0.489990	-0.150718	-0.740902	0.203484	-0.622047
13776		9.983052	-0.000194	-1.681755	-0.045747	0.158450	0.075639	-0.625977	-0.189697	0.492432	-0.150919	-0.739380	0.204215	-0.623568
13777		9.998806	-0.288984	-1.322199	-0.038549	0.241967	0.095895	-0.638184	-0.180908	0.501465	-0.151245	-0.737152	0.205066	-0.625843
13778		9.946861	-0.368747	-1.149480	-0.084787	0.269535	0.097154	-0.634766	-0.176514	0.491943	-0.151971	-0.734635	0.206150	-0.628266
13779		10.146601	-0.245524	-1.062851	-0.139339	0.325212	0.088774	-0.637939	-0.185303	0.492188	-0.153377	-0.731593	0.207448	-0.631040
13780		10.349261	-0.194617	-0.812634	-0.128598	0.467453	0.098190	-0.641357	-0.177002	0.474365	-0.155053	-0.727402	0.208551	-0.635099
